,acc_x,acc_y,acc_z,gyr_x,gyr_y,gyr_z
0,-0.7838356410915793,-9.115181046511374,-0.2110426154129902,0.006219694385449009,-0.0043236888721266895,0.6464301699752546
1,-1.9339385572552623,-8.99985206678278,-0.2773109092347792,0.007052706330221429,-0.0010546953108631775,0.6350839333636031
2,-2.3575979117948758,-8.722174680696332,-0.35955095132086534,0.008395954948677677,-0.00446812662125398,0.6417172765969891
3,-1.9330289425925595,-8.602799476523892,-0.33265314795494155,0.010002152044615426,-0.007873955481237262,0.65160040520035
4,-1.311736178019792,-8.807873283691398,-0.1557765913191111,0.011134426393458218,-0.005594463792895064,0.6514966540817448
5,-2.2954652274029343,-9.132238232434752,-0.11908189474542712,0.009496557827050217,-0.0003955939479072637,0.6463669990432179
6,-2.8900390907199953,-8.585256464863804,0.13898303404525603,0.009342394897063417,-0.0030891385515633045,0.6474731239793202
7,-2.320675296078746,-8.439381004781016,-0.05110891505390533,0.00874546398802632,-0.005428041700329796,0.6542317140610914
8,-2.120021259244492,-8.667032043527511,-0.36040799102971877,0.007904472349099832,-0.004663541173212284,0.6551417429673554
9,-3.182414036388021,-8.948589189766924,-0.4104742589492805,0.0072552235705312445,-0.0017260002233763793,0.6475624485826486
10,-3.853894760643623,-8.588853830768631,-0.007543159349817908,0.007189213052530555,-0.006086594607994312,0.6577615606800593
11,-3.086413580622346,-8.258331758340097,-0.01063276258722001,0.007198731588415982,-0.006449234661469452,0.6563085241366287
12,-2.1517158074197917,-8.485639503478575,-0.2713720026359092,0.006689605570837942,-0.00526779846914025,0.649237875082778
13,-1.9532259797149487,-8.921550182982152,-0.3134969044144473,0.006592950267428828,-0.0031516062959782228,0.6423612080784706
14,-2.7371703228583586,-9.078311456834895,0.07241932792096792,0.007295666717448378,-0.001992042350394681,0.6413659749734146
15,-3.1370243692991684,-8.336412964407536,0.28059384047134417,0.007224279051747704,-0.008080459648774303,0.6524203287312044
16,-2.999009506016249,-8.434036089391217,-0.16244174932563077,0.005717288285344093,-0.006194340539948273,0.6486479591722514
17,-2.7405412207292743,-8.724167346789852,-0.2958398068376139,0.006312552416502133,-0.003581074087816139,0.6429871257627111
18,-2.9103414207199334,-8.765240951260036,-0.19987678076659182,0.007293844934317386,-0.0031500534485610684,0.6416659244699481
19,-3.610087360361873,-8.414484815093605,-0.0825524541750432,0.007259000526975595,-0.005617421618934647,0.6470525898229942
20,-3.733909972050406,-8.24143404229573,-0.1718551344942446,0.007214885929401426,-0.007374292300186641,0.6538480206038434
21,-3.920698625759883,-8.50402106345054,-0.025190538801537935,0.008013938030164843,-0.005113848028367568,0.6489401278096301
22,-4.00653946552159,-8.786222260149358,0.05923192295987512,0.008276661467517312,-0.004846882381656726,0.6509571569770147
23,-3.6744180347797855,-8.700368478140476,0.051976621367328064,0.007910368143525668,-0.004633880255877119,0.6533272461030945
24,-2.9838228225565913,-8.250892365872698,0.027661724056447422,0.0072345168714668525,-0.003485274525722267,0.6507687534915235
25,-3.0014418503067373,-8.440215296873422,0.260265398022755,0.007251282907207695,-0.005197302384336702,0.6482284660253627
26,-3.140808458060029,-8.852477856160661,0.022328781375736198,0.008826596430931805,-0.0037176297827844953,0.6425679821876247
27,-3.6227112023627086,-8.71756083635995,-0.057261871619202105,0.008803873993365748,-0.00431778766277347,0.6440425794892484
28,-4.005611300805286,-8.29612895777528,-0.0005688412265717376,0.007949886766558228,-0.005327351705315214,0.6469768201746703
29,-3.922002907397621,-7.997372850529118,0.04412889030046786,0.007123578798626379,-0.005021688569057778,0.6456435468434061
30,-3.3151252848925576,-8.350244477606443,-0.22539204366250867,0.006338323970338425,-0.003259188317442884,0.637989601358125
31,-3.7236114430762077,-8.69798825861221,-0.44695499995049437,0.0070752529158605824,-0.0039022450494937567,0.6334974333578409
32,-4.54597738876369,-8.623983341122015,-0.13015182933230607,0.008437598546358192,-0.006535967754620639,0.6390086393659458
33,-5.754619517270974,-8.465420222257693,0.1834315280599027,0.00901914419172911,-0.007072513080756239,0.6427114803961907
34,-7.747597401120557,-8.469401271607778,0.15043127987327268,0.008069690355396456,-0.004053248076576433,0.6377458702732155
35,-11.983015905280896,-8.480582202092311,0.15113864855272663,0.006427475774646088,-0.003169321189122288,0.6334796157020931
36,-16.17129786513808,-7.819150879925106,-0.07397932623551001,0.0040327571558413195,-0.01184910273613162,0.6260926838340024
37,-18.653264153349816,-7.812883041035571,-0.08480943428608795,0.004084700643500062,-0.012942202944292797,0.5805531577425451
38,-18.870485311454917,-7.969441484423999,0.081998948491223,0.005802645389287796,-0.009962245994402888,0.49986367548404964
39,-17.09256399258639,-7.965584755493031,0.27410117898238767,0.007471385567485127,-0.006207655966748805,0.38621012309216357
40,-15.084484246507268,-8.310143265282417,0.17023712202854205,0.00601136023004028,0.0006132007208307509,0.22575573476924976
41,-12.184426089018366,-8.978565692356904,-0.2475145099574944,0.0022620793213352307,0.005644108111883196,-0.05922534080822353
42,-10.92446613876489,-9.106526040182128,-0.24239048442504196,-0.00027839872812261647,0.008116789575361258,-0.2183426113929377
43,-10.565602780975931,-8.548319825704189,0.014732380782644855,-0.0022779563699294766,0.006397041893868312,-0.29591766777923767
44,-10.150044541455408,-7.740543319164238,0.3021236032802068,-0.004270216959119403,0.002034370639259663,-0.3514700673160003
45,-8.912797259445085,-8.327279641199095,0.48154143807393807,-0.005541695704120619,0.004059003176572834,-0.4126021157535257
46,-9.402103589820713,-8.931957769545079,-0.2313286035175812,-0.004574045470722635,0.0011967349141042594,-0.459469788137427
47,-10.652713485401419,-8.98731793777149,-0.30747664017862664,-0.005693866455610462,0.002102464600662116,-0.5087887620993093
48,-11.853802366531172,-8.359615229239111,-0.09240091423073252,-0.007446811824780914,0.005729299737123545,-0.5689134635263522
49,-11.516786472832411,-7.445186226948777,0.01914282932422337,-0.007883098731638923,0.009135015095731084,-0.6412287032222136
50,-6.327493382976956,-7.7523452947481175,-0.11211084193763449,-0.004901392374243307,0.006903601071001927,-0.7141776710905353
51,-4.155713409631473,-8.542282994023592,0.05180751614501886,-0.004387332343451747,0.009404237388356015,-0.767371484511037
52,-1.180991825322169,-8.285474873631852,0.17839592719661979,-0.005831658378536626,0.016319652691453607,-0.8087397903855058
53,1.5566611194642734,-8.064498157390055,0.13232783849790286,-0.008236438363587888,0.019026675315582813,-0.8242602859555013
54,2.7006962558018945,-8.517233119508965,-0.13312352711195174,-0.010579623277998494,0.01454333684932865,-0.801716114707621
55,0.886915232411761,-8.863498173723102,-0.5297088043107704,-0.011868280113011831,0.013341049959349805,-0.7321298918448406
56,-0.1993038734384636,-8.979511610821522,-0.6008378598465918,-0.0076361732770849336,0.005722125950779327,-0.670395912845474
57,-2.693821696189601,-8.774105821748645,-0.34748181573276904,-0.006367000890519623,0.003058285484474242,-0.6238209153441073
58,-4.150627233335255,-8.451367569033904,-0.11558177722856913,-0.0062570353795947066,-0.0001452856720164505,-0.5846589029424536
59,-3.882475969523176,-8.320760152674119,-0.1144868275044679,-0.005145870415161659,-0.004443029264522484,-0.5548635917715384
60,-5.669828451288088,-8.898131469731933,-0.22154188866616012,-0.001761926199869974,0.0033456190379871644,-0.5616397707890298
61,-6.379370033797649,-8.214223763952766,-0.025653647078538244,-0.003041008258989488,0.0055062190947359315,-0.5740249870801486
62,-6.071361073893341,-8.19340152262182,0.12181190666119505,-0.005161329352173566,0.0037647781649115058,-0.5932038026911726
63,-5.604122957507709,-8.527046962422705,0.2744568980438107,-0.006048366300831832,0.002323360822363929,-0.6163947880532248
64,-5.274473700907405,-8.77591487604668,0.3760682007614021,-0.005671413794383115,0.003807019518045723,-0.6432627760625015
65,-4.0656126302723194,-8.571461298794702,0.06238895916630924,-0.007939238806881072,0.00743564190796959,-0.6797991903083909
66,-2.4881368683408054,-8.348858095971616,-0.12289648825667983,-0.010269061844108508,0.006154436272525104,-0.7067419577318985
67,-1.4343445751778945,-8.634189718022528,-0.28507896289087287,-0.009840064898238954,0.0050622294574180085,-0.7142800584277855
68,-1.443140411530658,-8.956308843361704,-0.286527680493839,-0.008182747422147238,0.005711215473972563,-0.7122896974338528
69,-2.2440592021118193,-8.979388152374385,-0.12715845472392845,-0.00686447522295443,0.007611200324831525,-0.7075812438083712
70,-2.0248001901099895,-8.760988862127636,-0.11111524290877968,-0.006930813541762645,0.0066995603004184594,-0.6973932612674957
71,-1.7940073620410355,-8.336312505511886,-0.006417460799556966,-0.0054587239521287035,0.004133680303984647,-0.6815811848435036
72,-1.4393513108234193,-8.733215611909008,-0.2043071123231606,-0.0050514631497602675,0.004456554603184678,-0.665451229275293
73,-1.785485082048805,-9.21462785565908,-0.18212397834330518,-0.005883481725278812,0.005730952627659219,-0.651599844635472
74,-2.8939986329306935,-9.294547886360903,0.1351353276665997,-0.007128107702704383,0.005709851698791439,-0.6422314991450532
75,-3.24001676124608,-9.188443472689068,-0.17508232336641077,-0.006309487376768677,0.002248580196795971,-0.6396632978190462
76,-2.606896641225541,-8.739543387928629,-0.3233742943228921,-0.006290634373584739,0.0020386911371055934,-0.6355121605696338
77,-2.2913105059403636,-8.750045395646069,-0.4592087126853599,-0.006830007127674431,0.004468966344292513,-0.6419104113722074
78,-2.240484140508813,-9.001482924304227,-0.5151921624457905,-0.007228041930688022,0.006811842713231027,-0.6518207792683016
79,-2.4603168650053706,-9.15890085141002,-0.4282852938713551,-0.007012773214450151,0.007202946887618636,-0.659639169522116
80,-3.2737286461370494,-8.77462394009365,-0.15593743321284667,-0.006144499991960351,0.005503508321972635,-0.6647156831060312
81,-2.4605801646357905,-8.467629592009274,-0.2447382928153836,-0.006894824971726052,0.002960549594829047,-0.6641791545775295
82,-2.1658596111707844,-8.757523961718753,-0.09551559895446675,-0.006538951188167525,0.00400342242534578,-0.6680689649103195
83,-2.10533771289814,-9.07220978609901,0.1062517282653019,-0.0060425141261928545,0.006229592168964593,-0.6736314137076176
84,-1.9902066547719204,-8.979842482301668,0.17559134716080502,-0.00618891965145336,0.007281764989251892,-0.6767009309350664
85,-1.7998232715828517,-8.39560277562076,0.004686449878541322,-0.007056870419995995,0.005533863768185215,-0.6716124966919848
86,-1.0056241562314723,-8.637348539639348,-0.11578473347727176,-0.007966949277302009,0.004572201094237357,-0.6600784936967342
87,-1.084734437707202,-8.90171865050975,-0.3413117471065539,-0.006489453819122212,0.004292189717347617,-0.6559049334788422
88,-1.6109595637238099,-9.103654583532922,-0.34357464667093546,-0.005121875625442845,0.004674072040865882,-0.6546586491907935
89,-2.107225956686318,-9.105831159791197,-0.08909011744157819,-0.005468584762112662,0.005355665767648801,-0.653138949435906
90,-2.1962999303120614,-8.57429574693744,-0.11669213886200841,-0.007144712141560722,0.005352855799802543,-0.6523097320694762
91,-1.6134152820117498,-8.702702764835927,-0.24080922181726502,-0.007261748940401051,0.0045037115478489135,-0.6466113472579755
92,-1.392952342890946,-9.046174187764482,-0.3609626424067873,-0.006678926466258688,0.006061463758594725,-0.6460363376050104
93,-1.6167568790842106,-9.372162802408981,-0.419852532411243,-0.006216546262000457,0.007088839168757351,-0.6469620964964092
94,-1.918323103189477,-9.428276620780979,-0.4177719941163851,-0.006563711494901431,0.006046297987313712,-0.6459241836695351
95,-1.2209032547461578,-8.875346681113546,-0.448538042648322,-0.008266564717119528,0.00429825874271222,-0.6408457739027189
96,-0.9551302303950937,-8.955252254711032,-0.5944988827613747,-0.007515578782052966,0.00588787636399495,-0.6454716463869902
97,-1.2624144009925928,-9.083527564313414,-0.38650507517369415,-0.006651533115840618,0.007633087958748718,-0.6499612574786678
98,-1.7987663906932818,-9.216503450584675,-0.19461913125247948,-0.006187006875524127,0.007007173411675687,-0.6514899618632817
99,-2.045902533789807,-9.234735630502438,-0.1830569549364931,-0.0065422649283665675,0.004262284849336963,-0.6497875012083814
100,-1.189422018157774,-8.82484953000898,-0.10033642220889845,-0.008223141540977539,0.004255325126731459,-0.6481097897950585
101,-0.45329711148602714,-9.005511528555424,-0.02709923901306557,-0.008258640124462958,0.005108263607706721,-0.6537250495120681
102,0.04057134906184727,-9.01457230786603,-0.08758890038674062,-0.007034793431881027,0.006611089902433498,-0.6602572092449113
103,-0.2817652391282005,-9.0171289312452,-0.03901208888997646,-0.0061211181970957425,0.007156313134466838,-0.6615954277752409
104,-1.1795334384497285,-9.06455369558918,0.15786728382138876,-0.005814897931073503,0.00608238159507944,-0.6550791538260536
105,-1.0366235466985552,-8.94354187217863,0.18046395416936797,-0.004221632914327429,0.004298456087709227,-0.6431711550945202
106,-0.17730352991391285,-9.010035261346783,-0.007307788136244157,-0.0049364849483023695,0.005896503857108,-0.6459575051584859
107,-0.20260687983267536,-9.365770971833495,-0.24779517378382118,-0.006330707880134968,0.006423477071944806,-0.6511785358416653
108,-0.7297394723691313,-9.294962687935834,-0.3573834666600957,-0.00722387659052382,0.005636329312714464,-0.6524385329437575
109,-1.1375702140162371,-8.770627881039193,-0.2913536019896217,-0.007259596905431951,0.004248865402616574,-0.6469367857623581
110,-0.5395021053862472,-8.923366844473977,-0.22066644565797525,-0.007326015837727002,0.0041990603248818,-0.6367517833862744
111,-0.8483356990340615,-9.091052603690962,-0.06906345427036013,-0.006499178646039282,0.005045987017814767,-0.6404350989825818
112,-1.0881085669153148,-9.103456516489214,-0.14360029083414375,-0.006829749368209298,0.0046979570004306095,-0.6440772448921568
113,-0.977530506696398,-8.98791492257971,-0.16989906518974882,-0.007268888129188817,0.004241898260787148,-0.6455120242859191
114,-0.450119278805645,-8.86778219271082,-0.0863660412002836,-0.007093919684649761,0.00442345378190898,-0.6450241478272276
115,0.29673173082558635,-9.00867226439712,-0.20098112066881366,-0.00625356466526113,0.0052895758766358745,-0.6458655881473654
116,0.7307870827087461,-9.213180546917172,-0.23796162532487164,-0.00621278224211718,0.00699035571539464,-0.6475374863702438
117,0.03858444359810942,-9.182888290787922,-0.18072055954924374,-0.005632169486155428,0.006237715666435179,-0.6449800349138415
118,-0.4367882517336943,-9.03180015446096,-0.19321469634131,-0.005217874175930056,0.004488698644022977,-0.6399357458681529
119,-0.06385268873076623,-8.851042033267005,-0.28716315989824653,-0.0052398245777551394,0.0036777847026573784,-0.6365556230394371
120,0.6257364807124872,-8.671340177342492,-0.23329501684153972,-0.005201323848561371,0.006293150440765351,-0.6425055521517425
121,0.7298162213101851,-8.97081171521665,-0.20276572565957093,-0.006776960644972144,0.006410533120198644,-0.6484662277092911
122,0.0745462406895839,-9.068627421848838,-0.05359446879074595,-0.007282401772709357,0.00515005723167705,-0.6434561221110124
123,-0.3244552746708702,-8.940973623142778,0.11385569308134248,-0.006934700658851511,0.003796509613396123,-0.6368887523925033
124,1.5014590377237986,-8.694641298313117,0.07546904637105337,-0.00629438159471914,0.0036769205021531734,-0.6349667541136698
125,9.065405534348406,-8.591431701394727,-0.5828300243140979,-0.006272485598599078,0.006279834970827108,-0.638370432631954
126,10.576423336095456,-9.500009786119158,-0.6325076876369651,-0.006476002975705426,0.011218520489917616,-0.6072527129944718
127,12.317949296472122,-9.864580325295888,-0.4208353088297503,-0.0074617673398235836,0.008041555370662428,-0.5481384428673783
128,13.577159369815924,-9.591870110997638,-0.06377510280613956,-0.005733271045478428,0.006029599340868171,-0.45976841856634
129,14.006981352139352,-9.067404618772157,0.19013736798241263,-0.001408858580440868,0.007554629685152378,-0.3393791304865554
130,14.091161151390054,-9.297017324906163,-0.12428926606620014,6.191578123694672e-05,0.004190224163896757,-0.18063443158348294
131,12.282828225327183,-9.436026062342787,-0.45646013945600145,0.0014040112769085086,-0.0026193601808809593,-0.0020978820261314257
132,7.153144775893207,-9.43213522886585,-0.3563119077882592,0.001895714987958647,-0.004906047197265693,0.12187457372443
133,2.4104538381005627,-9.41127279549495,-0.21849536447641654,0.0039548908180395215,-0.01076168051712876,0.23664318320166314
134,-1.7489692574093447,-9.299660854595182,-0.17640820222979953,0.007023715585850758,-0.020721727784597955,0.3347997246416912
135,-10.2888141244181,-8.727047325426113,0.035539096077123175,0.006233411486363807,-0.02413681404164184,0.32801215317160215
136,-10.141499972498076,-9.316302939812621,-0.23674100000873693,-0.0009797674662658541,-0.02496762085283034,0.30874522521702347
137,-9.870703099379782,-9.49863633000326,-0.1565416785124253,0.0012848729170745828,-0.009692175922119331,0.19947626457316397
138,-8.658879722837593,-9.269361969771005,0.0470874754098726,0.005145589299755855,0.0013900233942235744,0.07175716484786894
139,-6.248067365363698,-8.90748655133198,0.18881703689530768,0.0053775148583635165,0.0035868181496293908,-0.03762873639258803
140,-3.4603456413404405,-9.020190848549904,0.1783135250164954,0.0010573830517922591,0.014454062869953573,-0.14381155926734343
141,0.42248060236593443,-9.336961378965361,0.0764862895758869,-0.0010974820683484297,0.012491379607851946,-0.20685669719272481
142,3.1343292481801046,-9.420913292013504,-0.1038963810721767,-0.004059303715418186,0.018787900479342434,-0.23003002771403816
143,4.818309692249956,-9.472928299194763,-0.3647925490644587,-0.006263116440680587,0.02288271975495592,-0.2211491067524773
144,5.494786486573455,-9.621734563012403,-0.5957178422841969,-0.00676710393553981,0.020978993983793933,-0.18444733699024718
145,4.897697212818473,-9.88450994920683,-0.5322720794876418,-0.005528834656686081,0.018929458907613297,-0.11822278736467982
146,4.587855204384846,-9.50696861412959,-0.24010780946884502,-0.00022586073318147369,0.0025255175736350736,-0.04857889586974193
147,3.0709877576251943,-9.353137784893612,-0.16016818447943412,0.002159596949818105,0.0021658333543234883,0.01548116740894426
148,1.2487168931631762,-9.495971394997358,-0.12752901465757632,0.003460255919657754,0.0021362654405945288,0.0721660406825177
149,-0.4382237937556019,-9.681958079343302,-0.14546308644081762,0.004661477351588422,-0.004305552554724314,0.11473450112928815
150,-2.2035524908325965,-9.255694676886016,-0.45482790215216595,0.0054037240579798045,-0.011273073139240137,0.12919581026814095
151,-2.9865157303479006,-9.41399831345273,-0.42598704325486136,0.0013717623544066003,-0.007987450405370227,0.12192651154006509
152,-3.56571908421952,-9.36882922804691,-0.4543211541921105,-0.00019860178518239048,-0.004415592928239197,0.09688066849792697
153,-3.700390252975084,-9.353196783451958,-0.4165161966124916,-0.0008024251300808769,-0.00037764669927946976,0.06136705472358081
154,-3.272365660794769,-9.430708130424687,-0.3377310642351162,-0.0015795063893672477,0.004323295649262159,0.022633768757796057
155,-2.324364084349359,-9.429915066697836,-0.4421153425379655,-0.003023661653343648,0.009666614576465782,-0.01220081258072443
156,-0.8746122530342151,-9.338094438434085,-0.3365645963572944,-0.0011776697752346455,0.009080694900354971,-0.047809446422172025
157,0.6998087116174195,-9.523115843549663,-0.10685825522949154,0.0006190853351216788,0.010841976828962176,-0.06725417739067453
158,1.5091151795727797,-9.668609569971364,-0.022015951291341807,0.0011083620112093044,0.01345213352648426,-0.07220855109603216
159,1.3659743177519101,-9.615178261168637,-0.12068091698457828,0.0004247319355642972,0.014791481921430491,-0.0653880831831268
160,0.9220727019357067,-9.40190709545672,-0.16224182258557,0.0003253506487489833,0.012130464125993414,-0.05010243302553421
161,0.9030104319745794,-9.685603895199465,-0.4238993693247561,-0.0006734003217842739,0.013659498206545412,-0.023134801364215897
162,1.1899383015037959,-9.497873051281957,-0.49891342328020616,-0.0010586552087099447,0.012088604869388429,0.0021522521664619106
163,0.6403619092989202,-9.123041267276339,-0.42683902997061307,-0.0011946831497545345,0.009400522698035462,0.023057471265854147
164,-0.6956924550207346,-8.868794101157006,-0.28239011853304474,-0.0007059404556129556,0.007347825299417743,0.03924028421355418
165,-1.355916578213743,-9.054387423066807,-0.17313230553772488,0.0017109994294346675,0.007279409459910404,0.0528493163549962
166,-1.7546302159649418,-9.30012080813192,-0.07196419901176532,0.0009483680558788748,0.005600602788374274,0.04798414562258447
167,-1.3714369684726282,-9.366658157803219,0.03789178485588346,0.00017084940400651706,0.007102582577882797,0.039117173603223934
168,-1.3459770183504274,-9.309023016939115,0.03886960182329921,-0.0005599626451121777,0.009346460251389532,0.023106865470084517
169,-1.5499467817239216,-9.259592436010614,-0.1394409546494722,-0.0010604730949895207,0.01096583652481001,0.0024509768280995756
170,-0.37779201890164155,-9.436735587414713,-0.5152778949883697,-0.0009553973263069679,0.011906524316712895,-0.01367719483324512
171,0.7589911018514752,-9.590521860449364,-0.20267848388044143,-0.0016724412330381615,0.015412544371933947,-0.030664980283923147
172,0.9707355783975548,-9.39583363390584,-0.2033208828424791,-8.766933210156399e-07,0.01696846900130272,-0.03568163518133603
173,0.5629496627831937,-9.32687748840266,-0.21213033695196318,0.0012494408618251268,0.0173876479572388,-0.031930386757524215
174,-0.1221147255824428,-9.434300551466544,0.015689797311335504,0.0015874239033910327,0.01671237717868479,-0.02179451712190311
175,-0.7162674947123212,-9.29041154338185,0.6478483983447358,0.003158636816823471,0.014050020226580274,-0.0064895996991301734
176,0.3050264573997876,-9.156745070945938,-0.12949153345578238,0.0014686294084935599,0.014854288440813684,0.0003424250847387036
177,-0.2853315915948166,-9.071534991663205,-0.13931699048400797,0.00034188196704191545,0.013737668941105476,0.012167746999826723
178,-0.9443685152646488,-9.277171691633736,-0.14641546734697078,-0.0005568255112978055,0.011966294581697054,0.021972572128249455
179,-1.1885026164584627,-9.521394452313453,-0.3930709053769636,-0.0012169967807603684,0.010431425201265084,0.02646050404931584
180,-1.7141369443378482,-9.01458447021531,-0.5349886739559546,-0.0012169160915800653,0.009568781019895051,0.02646348701238424
181,-1.8726772624066663,-9.409679685125225,-0.3669882242774285,-0.0020098589427024562,0.0113093205229362,0.020537619675167748
182,-0.7886141959897396,-9.15413627165077,-0.11907945944441134,-0.002146761038971019,0.011163098221208274,0.008901670360083354
183,-0.06620345774329585,-8.960543880608215,-0.23944150861009306,-0.0012462058457811006,0.012064404199678797,-0.002144952662894369
184,-0.028031292142104897,-9.204588134716513,-0.47385132467199087,4.584209866151999e-05,0.01382406720414451,-0.007275108523314005
185,0.358608483486121,-9.898300961431142,0.16998362546969284,1.2718441474222284e-05,0.012937333614490449,-0.002180423869665189
186,0.4890369180933688,-9.755590735954204,-0.406470583759719,6.756709056771682e-05,0.015555123116671775,-0.010637047531018662
187,-0.5526962102845815,-9.418191594173575,-0.25362048945447996,-0.0005635143550864253,0.01620300120705341,-0.00961476210176304
188,-1.2767276107914673,-9.275931762459964,-0.4742472807430903,-0.0014154867716526932,0.016620676143461768,-0.007074766410197809
189,-0.906031870541166,-9.347689724627406,-0.9516530000990798,-0.0022648184241786263,0.01704377051411399,-0.004970162504596776
190,0.6023526718464194,-9.275417206067285,-0.3184917639462507,-0.0031383829854082896,0.016153555115211368,0.0009637762053059005
191,-0.21629738270393734,-9.627062318797716,0.16371316589640622,-0.0014581225612927645,0.01788291473016176,-0.0007154116432171948
192,0.6243969836329071,-9.362398558169316,0.09274877539351888,-0.00041996576558301556,0.018308653517166422,0.0001444903572172967
193,0.5481899189412424,-9.177684429333521,-0.191329471588677,0.00040659787524984756,0.018733687023840283,0.0014255544963997107
194,-0.47471042579787687,-9.362973468270718,-0.4444545489406526,0.0005884455445795909,0.018928327915220883,0.005048817938432397
195,0.05094108561031691,-9.80086612453972,-0.5183085698580308,-0.0011552888446178205,0.017152147945813316,0.016879102833255905
196,1.3625798181211215,-9.158245484757847,0.10444035579490869,-0.0011055604543567207,0.018051332804900976,0.009238167585586873
197,1.0015082205741705,-9.352769080808347,0.2417692736056476,-0.0010765933091513497,0.01828639171547704,0.004792407109952316
198,0.40708738810694495,-9.416370743024096,0.13211103152776416,-0.00148608305196006,0.019162514228256773,0.0030974154321263257
199,-0.3282098152876981,-9.206636694364311,0.15951731634265895,-0.002093039819087422,0.020244074745128494,0.0005028717201681285
200,-2.3835665704328948,-9.37414038590523,0.841108182501826,-0.0020232482464047586,0.019431840421010503,-0.009638586137213377
201,-0.8428804771700398,-9.691310394485223,0.8561176398655141,-0.0011819427071453111,0.018572677418643838,-0.010474847815117608
202,0.016566217629076146,-9.177987538038451,0.5243683532457075,0.00021790694219615781,0.018310912380199492,-0.00041408582853140344
203,-0.18258496629147383,-8.960892398728848,0.16926583986243124,0.0010137953176179164,0.019595123465643675,0.0041622094010693705
204,-1.063851791290312,-9.267679891227615,-0.12455418564168842,0.0006066607359370107,0.02175590576308843,0.0009922467419366803
205,-1.5365609619612597,-9.484748721215887,-0.48973668061076836,-0.0010578448135275934,0.02260834843174397,0.0009918042242913097
206,-0.5312975453278722,-9.268558259385461,-0.20102498327272045,-0.0019155885120269705,0.021729775697828496,0.0043794857231686975
207,0.047781388508822326,-9.611026513171359,-0.14024464640250328,-0.0014535050579473304,0.02350264740778052,-0.0005808042643105963
208,0.2546076265631431,-9.395305789554467,-0.1277548752532861,-0.0010233701444904229,0.02435179804261055,-0.0034763464970593693
209,-0.07474557776461102,-8.765304846189723,-0.360353694566288,-0.0008286490832375943,0.02369668292208489,-0.00023921003876508197
210,-1.2688937214680047,-8.995119319866367,-1.344946435080009,-5.76812910812975e-05,0.023643832120531286,0.0072720381670200885
211,-0.410455536085842,-8.985011791428041,-0.08672476345688337,-0.0008426083185616676,0.021957378011941153,-0.00037077776172558265
212,0.2189817402980022,-9.631614382830643,-0.06305448226238616,-0.0010606827678053266,0.020875225981500923,0.0023067380986913698
213,0.24534701776941917,-9.470960512254022,-0.1518740591879117,-0.0010318258836359531,0.02267370505233288,-0.002149944929003198
214,-0.3161978376805408,-8.72080048186135,-0.0946115730006321,-0.0009899112487398631,0.024992185303794018,-0.008618048798438447
215,-1.0706196113753914,-9.05923002983096,-0.3697957661902001,-0.0010838799638203942,0.02152499023713029,0.007306811959695393
216,0.7524603433270775,-9.129460147284972,0.2909164134739823,-0.00023253400404501883,0.02326124942345497,0.004764625512357692
217,0.41748557744893583,-9.241590893962037,0.6159923100918604,0.0006313411734274369,0.026320355444542882,0.0002777682584548971
218,-0.0385694513059156,-9.576834783011407,0.242733365610327,0.0010488791091055809,0.02579964791866929,-0.0013276828642100043
219,0.28332125697766,-9.943137049865253,-0.653368504425913,0.00017943930230132534,0.023311836398761006,-0.0027584659129397753
220,1.281594746501042,-9.834794436097512,-1.4203271075070931,-0.0030509626624341574,0.025936428445854837,-0.01267646885225138
221,0.19606687011698476,-9.561735750960466,-1.2739455452157937,-0.003134142434996565,0.027598655122626152,4.802429080868597e-05
222,0.3154305822151309,-9.589720850866845,-0.6388595722496981,-0.0031958603519683364,0.025981899071672743,0.009540104735332006
223,-0.07118005120476328,-9.418868492225347,-0.11734078263100245,-0.0023197095919299804,0.025626517825320654,0.007113206300953795
224,-0.8670631697193611,-9.23123585698529,0.36422403491423616,-0.0012551508712320978,0.026707905176776344,-0.0020032213937213384
225,-0.512496759845948,-9.739748218315073,1.4037127985664843,-0.0020819519191642086,0.025884093722142665,-0.0012976457624307575
226,-0.4131450200326189,-9.177173713178808,1.2075982844272484,-0.0020322990226099196,0.027645926658491988,-0.008942360672353596
227,-0.6732667646656962,-9.299361559091,0.6486755211340682,-0.0008329907723626216,0.02534226707470042,0.003613881630444244
228,0.05243131144648716,-9.47797308426294,0.3121880888560301,-0.0004657107855804877,0.025455745002017312,0.004728506513973661
229,1.2203976621018704,-9.533283302276025,0.29124448104801814,-0.0010013180053817297,0.02826848308276597,-0.006927351912317185
230,0.8138834107285321,-9.63352212227277,0.27854790891253833,-0.0009902225169429767,0.02905908490561038,-0.00864271281501789
231,0.9377060224170652,-9.435314233681323,-0.014818969395022467,-0.0009732952542285402,0.025623387153639248,-0.011177039951595651
232,1.1751992603913979,-9.347118809061062,-0.6774264165351638,-0.0010035610682522563,0.026130656592073215,-0.0065453661353350005
233,0.6355185881970526,-9.504052069710964,-0.4289296240723772,-0.0015252403662485482,0.02599766510897486,0.006854571079917752
234,-0.5447141610493716,-9.533546465670078,0.5485691769637507,-0.0021994856117743544,0.02515740118331404,0.01673690917166285
235,-1.3834695628757516,-8.731429991112249,0.9407437011110377,-0.002114763172818034,0.026850788338853487,0.001048090918684971
236,-0.05568005492717318,-9.898382858612326,1.1943041948532136,-0.0029825526386936217,0.02337840798973838,0.006142488289627228
237,0.8658631542923302,-9.809473845696143,0.5061440421292349,-0.0024901766218230676,0.025944292967796607,0.0001012673172252278
238,0.9514180516504747,-9.618480854347446,0.14982063507778445,-0.0016691274232288663,0.02619299396874924,0.0022937621441716793
239,0.35545175179200067,-9.660115922767094,0.010801774279021154,-0.0008817579587696285,0.02388291655059789,0.00972065514232722
240,-0.29467478962526933,-9.648526858400519,-0.9777242752390868,-2.0234943208601653e-06,0.02483778847556011,0.0028395249010395984
241,-0.2726510049375884,-9.036803599981193,0.6864207798480688,0.000904508616902304,0.028339220488056108,-0.0081958582895551
242,-0.20707535839614638,-9.298322902755146,0.4263625751513448,-0.00018240752780996353,0.027798500697903225,-0.010702953908257675
243,-0.26633155486837945,-9.019391948829801,-0.028989708714555074,-0.0014207044590493186,0.02878353662977643,-0.009830875396488173
244,0.2672434231241924,-8.652319856758563,-0.20474025934586526,-0.0025227839417493506,0.02959725488908982,-0.004181469238884494
245,2.549735921860479,-9.910341312980522,-0.47069575319947127,-0.004163393399856938,0.023776060744810267,0.011076750769028473
246,-0.6177737336659488,-9.443218006307779,1.193333609144405,-0.0007072551569162715,0.029032349174842285,-0.006723971963507175
247,0.7895074254743333,-9.719276561244312,0.7145098791592291,-0.0006544130343278769,0.02680933804795687,0.0004942455217662959
248,1.2978815502810706,-9.639202454209206,-0.27530689883988807,-0.0010648286131560293,0.026120857887360995,0.0028490540646536767
249,0.5774367087019266,-9.335809452663527,-0.6629469980787099,-0.0010648062395753795,0.026794512818046727,0.0028336323604714305
250,1.785787521684741,-9.759233587734709,0.252935770531029,-0.0011548589769610443,0.022694876209634094,0.023870555866536382
251,0.8485531288644212,-9.257471769497226,0.6441534414875967,0.00061392422546429,0.029664535550840074,0.008590056635794648
252,-0.41408163730528885,-9.031836619716266,0.5493058165276076,0.000355823182121553,0.029195013225800023,0.005205188056421051
253,-0.0650206252027925,-9.201639682299994,0.45996418601103295,-0.0004584654652030101,0.02799324393352967,0.0020558064847721706
254,0.9447278216281794,-9.302824014869948,0.6868956515475122,-0.0010350396580759002,0.028253406418283587,-0.0017564912842032454
255,-0.2098347504284555,-8.52985627295766,1.3708355325226635,-0.0010485236441988444,0.028922258329356004,0.00029912316783774505
256,-0.09726873980251635,-8.67389835750809,1.1610619114169871,-0.0011365915366800439,0.02368403783880377,0.013895947857396198
257,1.341880156547165,-8.879342599281893,-0.2692536230845446,-0.0004135850264927567,0.027315656548412462,0.00294894669131104
258,1.4808645355447083,-9.249427885060616,-0.7573523219559058,-0.0008736021081642247,0.027879651084473447,-0.002702288417573573
259,0.18397678583927368,-9.365340055401779,-0.11313630264448304,-0.0013835404012548782,0.025745389395312797,-3.1324427141316133e-06
260,-0.9593560251713882,-8.54080672543638,0.48153290384905206,0.0010031569305020262,0.028951534099957894,-0.00274243911152121
261,-0.4386158716671125,-8.81404493317648,-0.3857087284061368,-0.0007714013672770684,0.02456403970896506,0.013377601458178885
262,0.6019467761747631,-9.038202094718564,-0.6763631789111545,-0.00043304470692524485,0.027715630479824557,0.00622892874970909
263,0.5015964532093264,-9.47548140380444,-0.26566740988480586,-0.000897566605162758,0.029235293391555103,0.0003411704304820336
264,-0.5108121174939078,-9.758413727626689,0.30955684788096144,-0.002326383561308933,0.027760868866774126,-0.000270840820633774
265,-0.9140055262190778,-9.169613022118654,0.10972699041959678,-0.003047838766787473,0.02691875534350085,-0.004192789988549299
266,0.9350135526713497,-8.977249298333023,-0.061317744776412775,-0.0014103785389802614,0.0260298655707041,0.0009227581269278749
267,0.7065281161890473,-9.130923975901622,-0.007059396056006927,-0.0011331118442303462,0.023752606951171096,0.013361180787763126
268,0.8345061588884934,-9.495002787142976,-0.48231711413002787,-0.0006549437467545105,0.024887294769028123,0.00867581725896889
269,1.1369821199150631,-9.856631965668825,-1.066919299425369,-0.0002116701450700341,0.02753177877911787,-0.004756546237895627
270,-0.07184418405698553,-9.905856201472163,-0.6381474962510959,-0.001051023820221727,0.02594239607115909,0.0007355208210377837
271,-0.24754504412095155,-8.491687002927842,0.16212000991376507,-0.0010125230910279597,0.02855776180926706,-0.005214408291267715
272,0.23393400708609596,-9.078715012870767,-0.17366213364266686,-0.0017411467645279686,0.026336640205250367,0.005564086442224244
273,0.04286681749696486,-9.432575066071884,-0.1958783205623399,-0.0016750864675004332,0.02846134515808239,0.00529232302757792
274,-0.0878165146312061,-9.42093736814704,-0.06966073352238872,-0.001020104348132075,0.032411539657590534,-0.004120560270084505
275,1.5791175404368532,-10.060952318156872,-0.7987102698098866,-0.0010244404763688382,0.029028524772088435,-0.003395477114007342
276,-0.10839378407722672,-8.905915391141784,0.4881879726733468,-0.0010076745163213816,0.02731730614816562,-0.005935767378445099
277,0.8438124524493976,-8.983254183065853,-0.05236730236704823,-0.0016954874384490736,0.02897972476124349,-0.001787578674475355
278,0.8026551608510404,-9.374130916788467,-0.14434691386808945,-0.0016866362237299985,0.028256333358908394,0.007370518002297332
279,-0.0008448541825600564,-9.71250752729463,0.08190288831795103,-0.0006221372393013242,0.026555876222218312,0.009620411973664617
280,0.7546505518429608,-9.880868160666365,-0.7765614717450495,0.000931437543121182,0.028984424056309573,-0.010371590753288218
281,-0.30591703522838815,-8.462062891307816,-0.13483531620666417,-0.0032933507193402545,0.025502277912634402,-0.0027710613017777
282,-0.12259508805092212,-8.848916526533552,0.06566762584040668,-0.0021653834058608296,0.027525719455582857,-0.0038726776370524157
283,-0.13530047471160217,-9.340069273293214,0.41452291083438514,-0.0006086286959915315,0.02766302331829039,0.0024348096446182915
284,-0.3443707421088383,-9.38259617686264,0.5135835014633785,-6.427134857915197e-05,0.02605606491839224,0.009391022852282606
285,0.02905860369848401,-9.132574755854396,-0.4629865943537249,-3.129897123646935e-05,0.026856186893461042,-0.0013801721704493385
286,0.44457400813939574,-9.798249604602036,-0.22200285263272693,-0.0008328307317904798,0.025157281515437523,-0.006476737505173465
287,0.23005957459690723,-9.11755880236314,-0.13637452948102147,-0.00032892310219443017,0.026183156491117014,-0.008192320667362125
288,0.8681237093436002,-8.881256575164644,-0.5451473934604874,-0.00041787648098603114,0.026486423322202184,-0.006264177402459003
289,1.6145092627481805,-9.13430962597356,-0.9688197545812332,-0.0012986650401858187,0.02584578275838444,0.0007373652876436882
290,0.6359783539254968,-9.016706566668804,-0.5491498698862389,-0.0020949852474338435,0.025909044521565495,0.012715102819808496
291,0.15096567335895023,-9.540556724648921,-0.5267446205898176,-0.0002918106851698882,0.02859361790741901,-0.007642187862274366
292,0.33806171891792014,-8.98655419991077,0.22613274249444498,-0.0019509305317288509,0.025681826645857945,-0.007715556503696272
293,0.2325709602947098,-8.916059378371862,0.3547652670826128,-0.002194753283170155,0.026076143350316987,-0.0035576112857856274
294,-0.09321584753235214,-9.371158160748774,-0.2507786897061811,-0.0003087415521346612,0.028557188348318288,0.0016259508870070634
295,-0.050640982349998295,-9.549255338852557,-0.9045339208483865,0.0019378946223257548,0.026961593530003915,0.009823815217050016
296,-0.2253630075389561,-8.856458618923082,0.5256126493136977,0.00036123441434672457,0.0287571610721164,-0.004630431310228972
297,0.5143808557597058,-9.842843161983447,-0.2122740658278579,-0.0019625952451580407,0.02704611906971075,-0.006861515396828655
298,0.32235379330600067,-10.092338932246694,-0.29930468061600746,-0.00219614178393538,0.026338323273685883,-0.002742453859070567
299,-0.36605700279033787,-9.403860762847486,0.3534906498803122,-0.0010827617596990712,0.02638048409803554,0.005594149307063275
300,-0.039619890138234796,-8.792703201044992,0.4651610118798938,-0.0011495228261897612,0.024783936312217664,0.015859143823266933
301,-0.3244608387656113,-9.304688132897661,0.6482635988278692,-0.00102238983441363,0.026603868679438248,-0.003666746026779282
302,-0.38825330332809177,-9.545986805504107,0.5134121388701609,-0.0016899242334562667,0.027639078177231963,-0.004134750028551078
303,-0.3158426307049044,-9.92413868878459,0.5128511311250029,-0.001623269939342188,0.028484680096504594,-0.0008315749628356864
304,-0.19456316216531133,-10.12053179348089,0.2918853749231476,-0.0005595062910880605,0.028542408972096076,0.003014945584573911
305,-0.07674989149501099,-9.58264591251498,-0.6994926897681221,0.0008893910698745863,0.026926669485591852,0.009277749360123318
306,0.6730376227612449,-10.114463045251258,0.5956557284056017,-0.0007583566900758001,0.027806447248531943,0.005859979420612954
307,0.4824651199472332,-9.450927899615712,0.6162714076468654,-0.0010268889484064765,0.028018425292025657,-0.0030020692973499064
308,0.16188683975403564,-9.351578703289928,-0.056181026031296266,-0.0005368876159724345,0.028037900991143727,-0.0070554357639400055
309,0.1924897159234884,-9.609537812669739,-0.8994151120944521,-0.0004888684676919025,0.027758737911882686,-0.0038693962526491366
310,0.755562832655054,-9.121210770684723,-1.3510046046773456,-0.0020749865518795902,0.026855414060114623,0.0048416759262137786
311,-0.11902612816462714,-8.578123440648673,-0.4344363176580976,-0.001322237857189176,0.025929845586065564,0.017585151850024763
312,-0.2234721015602869,-9.179202815826693,0.06315535097549749,0.0002641449069848388,0.02790750864196545,0.0056714037096056045
313,-0.4029336695004485,-9.2836304236616,0.1185356066838834,-0.00033641574044023263,0.027653477599973383,-0.0031671882333715934
314,-0.14231038290206527,-9.188125498902695,-0.14220449751912503,-0.0015574892299756878,0.02639460061893587,-0.0027822378169941133
315,1.4793608588388327,-9.934601729376176,-0.5360614901266982,8.07142613029797e-05,0.027992258312674767,0.0021750837726247497
316,1.6775749210279862,-9.37445446663781,-1.4532473589118196,0.0017347037284771345,0.02797846788657328,0.00474060163182806
317,1.0859563276198667,-9.73309374707414,-0.9751863114778276,3.134979673396446e-05,0.026588496618500837,0.0038367944095150422
318,1.0783248756006136,-9.588752445659459,-0.17732410405536,-0.001016624440105514,0.024906189143379276,-0.004520543823606038
319,1.3692166385885105,-9.323278028132599,0.3863958941906919,-0.0007082309324627058,0.02375431336676548,-0.012031110258195343
320,1.0584156303625214,-9.987368036065046,0.4626865107274687,3.622640691016526e-05,0.02377679962567908,-0.005977879582283586
321,1.9653061420575877,-9.777109642819045,0.7993092372072658,-1.366840579795723e-05,0.024601280764056294,0.001657892034987662
322,0.7222030106774533,-9.22826225385834,0.07773487200141488,-0.000759225780808541,0.02541283521600007,0.012040412263389066
323,-0.12083148698292669,-9.78982146736493,-0.052382181186311216,-0.00017991184980672043,0.02579398807322835,0.011148414143513563
324,0.06102837483787879,-10.393455968446489,0.20521609463377638,0.00023432695776952643,0.025562148628089216,0.0033593665473290128
325,0.9096134958924974,-9.209114788075551,-0.11954732001046822,-0.0021501940809115633,0.02487756887075663,0.0010561427662099253
326,1.0569281445812264,-10.266786347820664,-0.49090655658148385,-0.0029963294668209827,0.02659441706504226,0.0027379183262159594
327,0.7870931985725195,-10.025988124113645,-0.6022388573983378,-0.0004432489720659462,0.02620241717639084,0.004467150675365111
328,0.24207794951320138,-9.937128903177694,-0.6585462658741983,0.000990651950378436,0.024350425395157096,0.00762617219846341
329,-0.24228942870439885,-9.748736334719514,-0.7235395034068456,0.0007260770078293874,0.022850821063929827,0.007858529555340875
330,-0.25522757913813066,-8.597700715978899,-0.7118645683930814,2.8969742886877288e-06,0.02358555925283833,-0.0008640229214062064
331,0.2772585928662415,-7.5108008094807985,0.5513672984789593,8.054356765102633e-05,0.021919183451553186,-0.012740031432852612
332,0.5312352733364814,-10.331937357191933,0.15715060347883075,-0.0013098873566549558,0.02228821655121887,-0.008702096886331015
333,-0.04557433176865344,-10.709918738232762,-0.35848399560471333,-0.0005900958919765191,0.022188768551936775,-0.012123578578599655
334,-0.3910748090337409,-9.28759816815748,-0.37101037566312706,-0.0001994348809931677,0.021879195543515792,-0.013216865826807886
335,0.9036744676190221,-9.410645661747006,0.2017629004128803,-0.004050841574407397,0.022645930828270558,0.006948797268417424
336,0.604150995866555,-9.04439953971569,-0.3653812863014486,-0.0015122211876036282,0.023530654050099624,0.001883407154494335
337,0.09143239622550074,-9.097368390827194,0.12354065729196351,0.0010401892473185063,0.02230785459738811,-0.005258917870571818
338,0.17277748304832818,-9.686410733182242,-0.0067217313966550785,0.0011609878532885367,0.021069284682323126,-0.004192849247440543
339,0.8394228802126278,-10.032850485473757,-0.5263006813507036,0.00028495934687682814,0.019926624643954123,-0.003079293449141615
340,1.5583266734343302,-9.321458993687415,-0.4819056275459597,0.0010117546332583033,0.018435660876764133,-0.013579770567729793
341,0.15663513242263488,-10.849228244942175,-0.16415258165649058,-0.0007798922299024432,0.019208343365789932,0.005068634010690206
342,0.5048259511757175,-10.304522881919496,0.31246383806312866,-0.0003920655334761465,0.020778450417784828,0.004922120479276685
343,0.36432216820498264,-10.002152887513828,0.09109305337350243,-0.0005126588511322105,0.020037259523698704,0.005047231425395642
344,-0.18568880315220507,-9.891204530422112,-0.2866144474387082,-0.0010718678598129342,0.018568044881839385,0.004062833324410736
345,-0.17476163552294055,-9.121370577201178,0.11006961026364637,-0.0008885307531497975,0.019287997400820826,-0.005379180851763112
346,0.5035709328577189,-8.741536835461687,-0.13196040539785134,0.0007814356082546934,0.017562175850458446,-0.005353163174817465
347,0.044866271960218085,-9.359503210414317,-0.8132495436094203,-0.00032173650509332213,0.015822143511588112,-0.0018656584956468604
348,-0.2213399689665092,-10.308556888849797,-0.7465983904053825,0.0004383702969679101,0.016101690258779344,-0.0068728074180580525
349,0.014562341526592443,-10.489770959799843,-0.26504974348502974,0.0015986294260739503,0.016993060111758704,-0.008546619203596511
350,0.5744061126342461,-9.083900614801403,-0.1984094569403686,-0.00012499361638003252,0.016370181048688287,0.009229671827547208
351,0.5509140756340501,-10.016234468693298,0.12685164015504824,-0.0009380807631155296,0.019835601675197885,0.005812985869928077
352,0.5181249491593919,-10.108686107573746,-0.9237371357455215,-0.001056566258812838,0.018319890914742218,0.0017210327526884846
353,0.6910437174528377,-9.899316554515032,-0.9853070271982962,-0.0010734612055061945,0.01721188161561557,0.004331283290962308
354,0.5773730721435495,-9.917216328997881,-0.06306013856522644,-0.0008175547657069484,0.016916834007845046,0.006976621924491465
355,-0.3364668239912573,-10.462268379769917,0.8731799751083863,6.379087583205782e-05,0.016156062820177522,-0.00012101391994314605
356,-0.025686751176205707,-9.476736009676372,0.893435937830396,0.0009042265844008119,0.016159540733534466,-0.000959471277012228
357,-0.047724316364974005,-9.498559941730088,-0.1713035875686375,0.0010578397750642772,0.014738641363282665,-0.002504748308003427
358,-0.021463002398665127,-9.755647621213573,-0.31698012562566263,0.0010561609471398128,0.014011127187523311,-0.002234381241340051
359,0.2391208760054454,-9.812226751226216,0.08166246343051983,0.0004949285607021467,0.014003268623634707,-0.0005434852879430001
360,0.7701299409161424,-9.46249066571441,-0.12542383634603332,-0.0009198915765620994,0.014202185175996607,0.0013398654165356412
361,0.9242964337299286,-9.582424594205326,-0.5605995674061143,0.000721995279074048,0.01676640341405559,0.005594993229399583
362,0.6137873391444522,-9.422708355306947,-0.6150226372936731,0.0003113095158498449,0.015056279021383713,0.005609183435040362
363,0.21566159694234857,-9.429779102066096,-0.564736616130725,-0.0005050886073046731,0.013987741354075647,0.002780879461600522
364,-0.039615769832619135,-9.442196254654558,-0.39426364228510424,-0.0004957813811977587,0.01342548284295722,0.0007926533896272743
365,-0.0031478009300108366,-9.198680652853538,-0.03256462130214467,0.0010208365269878184,0.011688747630206386,0.003223304392819875
366,0.19408742638413473,-9.599872354247687,0.20146667057946557,0.0010154646504547797,0.009960119377644171,0.004077752152291963
367,0.5128172064360618,-9.712646587533936,-0.20722292066953246,0.0010329420610755307,0.010403929736475376,0.0013900143461534331
368,0.6425292146990511,-10.212796278050167,-0.18967707369518436,0.0010582756678945216,0.010782136695303216,-0.0025011582164104255
369,0.7044185880129025,-10.229183451228902,0.17781819425933745,-5.268807907413218e-05,0.011075177993595083,-0.0033550631544462988
370,0.8634273276794955,-8.834354201701192,0.3784885679967347,-0.0028639281035594878,0.01205749645343343,0.002333181147000658
371,0.2560602877369279,-9.437904049927438,-0.2311776862038509,0.00045408613152479976,0.01462452465933867,0.005759091593434792
372,0.6786099790848645,-9.879273672624764,-0.6924463475416629,0.0003260762812259012,0.012904348498812328,0.0027766389290602373
373,0.704970955746911,-9.982285452831373,-0.5358369821470617,-1.4461997820042347e-05,0.011332570992801501,0.0020157591439673205
374,0.28795630481369966,-9.766542490843122,0.011519377726077626,0.0005256113819637654,0.01103376219682066,0.005435041970847756
375,-0.10078868053842037,-9.370704106003567,0.4488687999147255,0.0017921703223007025,0.011413738596940743,0.011572929211085181
376,0.22124799333926654,-9.199970279654208,0.25299863654758603,-0.0007073848895148583,0.007109918017088195,0.010709256962797929
377,-0.011880898114154437,-9.514700692225803,-0.4975753922907654,-0.000381179137619694,0.008601538722635615,0.005592877984326755
378,-0.09911556089789714,-10.019412052690862,-0.5163425056855935,0.0009613524528498794,0.008662583123727148,0.003163098842368644
379,0.14123351745080076,-10.17320086001011,-0.043238476074731455,0.0017937654758447118,0.007823060753656427,0.00144976712721717
380,0.6514710394419723,-9.543449050275406,0.1792069595085813,0.0010660615432481369,0.008478887588290688,-0.00365398024047792
381,0.9255448044442227,-9.237012071275654,-0.2576085493755467,0.0010994270408958852,0.006780116337910178,-0.008739724399751356
382,0.5211742072925882,-10.151985488207316,-0.1346140992747615,0.0011094139029236424,0.006512037223831365,-0.01026625329712838
383,0.5673826138654685,-10.32432709697236,-0.4807671058226341,0.0006052575980050516,0.008031664240637105,-0.008619668457941005
384,0.7718085314048327,-9.990905073326934,-0.6442352991941525,3.6944127425712286e-05,0.008250254050581406,-0.00581155460554216
385,0.5268324986597517,-9.991771419802674,0.1937645661987315,0.00017976222619679088,0.00464493616882163,-0.004099579883710136
386,0.48229551184688013,-10.058661308647155,-0.1610186389742982,0.001838962342930349,0.008083443888638943,-0.0023944701135621034
387,0.30457337646274973,-10.268937551572893,-0.3473910612103245,0.0006509567386971161,0.007142438288791386,0.004297895856060894
388,0.36203956126878467,-10.124460478809755,-0.5494100987534536,-0.0010331260464310867,0.004898201988841719,0.0063868252929335165
389,0.5977705571832165,-9.830264081093604,-0.5331870026740617,-0.0006870013980416428,0.004983474149971936,0.005276361123494321
390,0.7801141890334782,-9.737535623815868,-0.0759811975429161,0.0028561084138667516,0.009175240658743315,0.005704583891543776
391,0.4526939233432812,-9.524719166837997,0.02089885185105916,0.0003234243493906358,0.0039846825933457205,0.009936392996089567
392,0.294807608561874,-10.032246200243677,-0.3436472247772338,-0.0007608145211282467,0.0031905935254058133,0.008433104862137593
393,0.33533101235420115,-10.256478146121193,-0.4668391708325078,-0.001078850877457494,0.005259053196172441,0.005370451493870819
394,0.45714812501566954,-10.034711427844789,-0.34929747594174865,-0.0013574459901032,0.005732100453854287,0.003732677976944106
395,0.5028405182870188,-9.536894401285776,-0.21464789628442094,-0.0017974173368376512,0.001470134182358262,0.005029130297781135
396,0.4083829528487306,-9.350065761419446,-0.2594780127725069,0.0015599569914907171,0.005790688653556375,0.002508897911167188
397,0.3143400443716639,-9.798164480991456,-0.5088716535581304,0.0013695380986522001,0.005723886697426006,0.0013983958638538237
398,0.24026818513496312,-10.047939413297698,-0.5580842325277421,5.413079105288471e-05,0.00384639823609233,-0.001489393003595464
399,0.2682549841536252,-9.892118699503717,-0.33978804631595905,-0.0007266701472330996,0.0018739056181725075,-0.003961215717478541
400,0.4529531470705894,-9.437634059401153,0.04163914538010528,0.0001044076459477567,0.0011785166944146695,-0.0033523697811406418
401,0.5547519740714253,-9.586596899656303,0.06911113228560944,0.0009502958445363648,0.0020487879136555,-0.005042294732890177
402,0.46527521973102115,-9.942841449844899,-0.29494709908412986,0.0017732078139645194,0.004365201359478812,-0.0031328462059270878
403,0.4203738099586146,-10.161321718686413,-0.4749215434131472,0.00060682116937995,0.004367742354847552,-0.0036570384952949626
404,0.42754338399876723,-10.102312531803285,-0.3934495207626964,-0.0010088068443828877,0.002653177080447326,-0.005323121688341342
405,0.4336508824784568,-9.771594130778757,-0.16459350776521034,-0.0009279376044355087,0.0011005327830354414,-0.004714377687435942
406,0.4331614650409529,-9.678164954339024,-0.14942559904533842,-0.00013177772041455185,0.0010708099084968986,0.00123663540676
407,0.27630604717426943,-9.88517198645291,-0.3237437258445051,0.0006833164264681634,0.00032096373567383046,0.004297247468689706
408,0.17574505133093676,-9.950266313996103,-0.33410483499157684,0.0010119439178262889,-0.0005435846772685904,0.004804558481142665
409,0.08978302172698197,-9.756234740473559,0.21525332731991345,0.0016133367403363688,-0.0004842273933033814,0.003063725830530446
410,-0.03907598665957236,-9.30697240494813,1.4726259626822944,0.004252432858504532,0.003932704428505061,0.0006539477248774104
411,0.10138681790409955,-8.727174165886677,2.04506576109657,0.015067194620243043,0.03148092653527558,0.006629925901610271
412,-0.5797866765179344,-9.089532923196199,1.9840418149564156,0.01668596145321807,0.07456288708092274,0.00011422793802514557
413,-0.46307607645461457,-9.842154230087637,1.3673048174923617,0.008594958165183608,0.10721676463876159,0.0006585885425022472
414,0.004972055347782194,-10.231002623633996,0.9410054868432463,-0.002094327794752394,0.1368815250824637,-2.461091517882855e-05
415,0.03064982914538896,-9.633971903685325,1.3332581200440208,-0.007688472445341601,0.17476890619652843,-0.012181102659886391
416,0.31793786496028603,-8.576653935090174,1.2486041501823193,-0.011876937072607167,0.1971773339941161,-0.010610986357991847
417,0.09452454073954962,-8.651475281115427,0.7349612544739808,-0.010342435934910271,0.22622773255605494,-0.00899579509082436
418,-0.07608565113682315,-9.947381265878096,0.2608923253294316,-0.006322671810781109,0.2532518197140685,-0.008374530229991095
419,-0.010714934867365578,-10.893285076000748,0.29925426627610235,-0.0013362912230060029,0.2779223930520081,-0.00505841046003225
420,0.3075417595386153,-9.94925924677732,1.1301005748355974,0.0032574704204015215,0.30173582497048335,0.002961455703029085
421,0.5424621295405753,-8.469558996363116,1.9798584474146204,0.004941864345188592,0.32329847212740126,0.0003607359503666031
422,-0.12869707951565362,-8.370694143132413,1.7687092324618954,0.0065742141657663825,0.3492649672181005,0.005764902891188407
423,-0.30215837045114946,-9.548014963683856,1.406944898535298,0.004667477367252167,0.37755878210842503,0.0072597231937299635
424,-0.06502826947768049,-10.21516019974138,1.2371692063812527,0.00019544044416805809,0.4068773607273096,0.006019019521339057
425,0.10949199942122877,-8.81125399026482,1.4036993365329513,-0.004169660620300842,0.4374335162408212,0.0057669033202255695
426,-0.17290186201858987,-7.632658968321216,1.7466302206111992,-0.0033330147296267315,0.4779537566990432,0.004788341840353535
427,-0.9785187979989413,-8.115201652692473,1.461919257211574,-0.003914792944003321,0.5080918500692977,0.0009033396981791422
428,-0.5161127976160301,-9.104928934689699,0.3872106396009904,-0.0057401004132569,0.533400773506042,-0.004489042131935442
429,0.3880414278355474,-9.869067448600422,-0.5436001502129928,-0.006402114880517079,0.5595118074956977,-0.008989433756867305
430,0.48507308007810757,-9.858986717961404,-0.4255720295782115,-0.0041732745396773005,0.588892000492412,-0.010569133255381377
431,-0.022452802613626963,-8.984846185160668,-0.08569458731919666,-0.0041748065743938915,0.6052709106527574,-0.010625770377805478
432,0.1177104714014365,-8.415062834255897,-0.11350306766728205,-0.009229508560354703,0.6060120406526817,-0.009956034103516446
433,0.02618497799050719,-8.58464101124952,-0.2984889390282674,-0.009966298215168326,0.6021531121534562,-0.006495225005384592
434,0.011381970754599527,-9.01317927123473,-0.7452587243473019,-0.006890176067916147,0.5978930906680568,-0.0004215634742363635
435,0.48679865958889745,-9.096335658607785,-1.3795410885884527,-0.0030443092378947736,0.5941772412533463,0.005804153933490818
436,0.9037823163423765,-8.865088453408472,-0.7930664124468818,-0.0013393870708571193,0.5821318706515002,0.000774246909189874
437,0.11467624398915136,-9.642848503852518,-0.1823200021380732,0.002519545557448171,0.5827683351646729,-0.0020686286726671666
438,-0.40672227203919953,-9.808982519555405,0.002481700280445708,0.003597606378610998,0.5794995123737248,-0.0009262152039502336
439,-0.40025510927418123,-9.40336113568652,0.020316095534241303,0.0030637035188145296,0.5779830402744515,-2.6936472187181256e-05
440,0.018713819853754563,-8.995278309831416,0.1585901151019771,0.0024945631149886687,0.5860639582515322,-0.0035568494250552327
441,0.35739068660658035,-9.790795180519506,-0.09005074402956252,-0.0024897113309659113,0.5964339964922246,-0.007896821629910889
442,0.7887377490797982,-9.583869156664388,-0.5953029263662952,-0.009628871643808426,0.5918440225278663,-0.015159003985978692
443,0.797141008274811,-9.07224846977896,-0.7530081185358226,-0.009897275377285183,0.5918931471950012,-0.01649477111982379
444,0.6569308164709531,-9.03593778599494,-0.44472555970151983,-0.006357941613578967,0.5907682721156845,-0.013588228544782824
445,0.665108481970676,-9.844061203342216,0.16067877340709724,-0.0035695188192886853,0.5813406224253393,-0.010535780103760871
446,0.26084967859230307,-9.730107568745046,0.09310253283285992,0.0014417061651516706,0.5787502798231798,-0.010466654333289714
447,0.11916220632038865,-9.74754910452563,0.7511860974585408,0.006384271913215826,0.5813649755775739,-6.725181168041987e-05
448,0.37928044847749015,-9.788930829338518,0.20063760890880006,0.003583347790731122,0.5815810021903184,0.0038677278704118516
449,0.6503897375009684,-9.553316594989846,-0.7776322271756932,-0.0029944672757237535,0.5785831350454423,0.0029500719012765368
450,0.5026256461853569,-8.896930099550886,-1.0395452690594496,-0.007288298134429817,0.5747895094062421,0.003000438590235973
451,-0.10669906350714607,-8.606509382746792,-0.6883706308868395,-0.0064982358754034795,0.5807901005033199,0.009779069565949355
452,-0.12705047698184202,-9.182070162159276,-0.8530541109120788,-0.0063928154298584705,0.5762840178213863,0.009915110065834872
453,0.07728036607685676,-9.43438011991001,-0.8302194435900212,-0.0027226593456375625,0.5751040135446004,0.006466719603458933
454,0.32522503790768975,-9.813134582007763,-0.5192139372645501,0.001584338339954618,0.5771659781265422,0.002690169770029676
455,0.5026367237261383,-10.607061162710488,-0.14366068981842461,0.00264465868865617,0.578038672938434,0.00015340594010488414
456,0.6577820514149327,-9.666325995147504,-0.8356168669164802,-0.0006393397940255706,0.5668765793352302,-0.00833519844990166
457,0.7533559821893829,-9.139415564805384,-0.4301848988997107,-0.003246675319289933,0.5677510610192346,-0.008681715386504774
458,0.5505169275842163,-9.322679156870882,0.349602158493587,-0.004742649248351637,0.5676114960037845,-0.003066455569581741
459,0.1510357285981584,-9.302054592734667,0.7147477268760198,-0.004974161539305282,0.5648937049831017,0.0009497928319431073
460,-0.28093263032510607,-8.466783094472186,0.2248881910804865,-0.003692446521042321,0.5612574145683604,-0.0022008936432547266
461,-0.668061823390836,-8.762929609252488,0.05172944371854113,0.0004938410122252666,0.5621241949739278,-0.003851493982459665
462,-0.2056133814538241,-9.549290182789242,-0.45789961307420785,0.00024678235037208234,0.5644831708908382,-0.000343010197676097
463,0.4022179949111072,-9.456270274147297,-0.7355524007009946,-0.002687237490255619,0.5578591284587571,-0.0003799446495686275
464,0.5442174517568817,-9.210594410322035,-0.6943951560256232,-0.004630872623968029,0.55234086202279,-0.002608823317020722
465,-0.0300422120027058,-9.463570516216281,-0.4244196583328403,-0.0032690658095811224,0.5562938012467896,-0.0052955405086352655
466,-0.11666909844092861,-8.592738330357957,-0.3122108623866171,-0.004042689833674328,0.5520301366513012,-0.014625588507045819
467,0.3430728404023041,-9.437863758012988,-0.4423718350414497,-0.0019536947891862846,0.5515002229041651,-0.01197904101414882
468,0.8047620365576984,-9.573746258643755,-0.9132988569612359,-0.001028613094022047,0.5482362268377338,-0.01199763534697577
469,0.9345260321319793,-9.369782735738765,-1.1941601926057603,-0.002628222284705619,0.541744599988842,-0.010978086999331319
470,0.601792888382998,-9.466723690563065,-0.9025918617744323,-0.006184687965443757,0.5348033313193752,-0.004319078036144626
471,0.3145048525681392,-9.292249676667838,-0.7903099380377231,-0.005388147278513299,0.5390835917826738,0.001617040851097922
472,0.8818112434694224,-9.023305583454752,-0.8266088637560051,-0.0037956347927994346,0.5327536864005588,-0.0013916087495605021
473,0.5070910160679825,-8.794165731158309,-0.5204838878452326,-0.0026511330638822593,0.5288185593010293,-0.0018451392440535321
474,-0.04525033375012771,-8.759076406407722,-0.14983809150752164,-0.0011943393757740904,0.528733427619684,0.0011735775180555415
475,0.1503446160601541,-8.97186514416688,-0.08230096658944722,0.0006064535359563474,0.5307156470649369,0.005824228958963871
476,0.6847884578145423,-9.089219531621728,-0.4669069852151338,-0.0019099431296130723,0.5289856931862691,0.007497067312861239
477,0.3779398764615405,-9.321749758935585,-0.7952411822053469,-0.005140367981684835,0.5219325574704767,0.005424309432172936
478,0.2967268607924225,-9.5094075670681,-0.2379874791949866,-0.005250243167048962,0.5213321514970709,-0.001437689573547684
479,0.3305685909664856,-9.545603010366357,0.18983873039713278,-0.0038586224881812445,0.5201496759231713,-0.008129998309547073
480,0.19147439604156383,-9.360790086493706,-0.25094721482590576,-0.0026708552902258323,0.5120075728662624,-0.009471770519942663
481,-0.2690674126497787,-8.95623994606165,0.16732077482137225,0.000631279960246202,0.5068032075785545,-0.0034727796015328848
482,0.08830723030484576,-9.55084124929229,0.3502614550676273,0.003976767590562921,0.5108136384023314,-0.0042850993228492895
483,0.030600978791519184,-9.403997246217378,0.3531825000331241,0.002546568083221289,0.50995482141863,-0.00816302771280077
484,-0.015574732850953898,-9.202087018671257,0.22220611951649402,-0.002932214124250536,0.5049742890306524,-0.007365400303348445
485,0.2721100454447129,-9.617001207751601,0.030201207852584,-0.009114180327474642,0.5000987008266271,0.0021709431005765686
486,-0.3479818478729608,-9.594578576245965,-0.06548770656326519,-0.006648457300869778,0.5026539496045008,0.00813306745120752
487,0.04932041579995393,-9.441430972746,-0.7397832879613032,-0.004894810561369454,0.498328060612956,0.00957837766876151
488,-0.0462699661267157,-9.30033538727894,-0.3228375592851004,-0.0032225302709065124,0.4914990547717619,0.009383652866710501
489,-0.3039181647860967,-8.922144143782937,0.35507792101622415,-0.0005621502320730033,0.4854312253472572,0.00792403941927773
490,-0.27246085228104344,-8.337018571648274,0.3941253616603323,0.002920903545368465,0.4826034432632756,0.005429229777668384
491,-0.23722279678074937,-8.884306563151554,0.25813249728642823,0.0021025250598932692,0.4834792099252363,0.0028699689460362104
492,-0.4666175726824287,-9.066196407951367,0.03851823021213677,-0.0031868836171809753,0.48358886776661025,0.000259671247579098
493,-0.10658534591341387,-9.13675152700745,-0.33433982741015605,-0.005759248789830033,0.4780882166145687,-0.007754474588193075
494,0.39705603225477804,-9.192471833083507,-0.5425289295200753,-0.00457910995764761,0.4745867941804698,-0.014420544013126571
495,0.5144574920150503,-9.263648238331891,-0.3926832372510177,-0.0012509660526706544,0.4769032640161478,-0.013532812926682396
496,0.1836113042623339,-9.220480867901097,-0.35236465740350786,-0.0029594107273573627,0.467392943287791,-0.007579100863858271
497,0.45392954256552215,-9.35484977848828,-0.04973359595521533,-0.0016839049938829325,0.46019030086717305,-0.0008384105744411988
498,0.6943187574090961,-9.510161099847068,0.1478975647741883,0.0004991884865969507,0.4577220569295606,0.003248235362451991
499,0.4577873064752388,-9.386322698206932,0.02601943320738273,0.0013570622411380022,0.45738422115947663,0.0024465354255139233
500,-0.20435732202161933,-8.903525021156499,-0.41597720873539545,-0.001022791387271959,0.4562899584713396,-0.0012828608151464673
501,0.4034991353584524,-8.81236114341464,-0.5458603237145087,-0.007764218155763769,0.45366336328903095,0.007981566495886773
502,0.4103551732888685,-9.331848873342967,-0.6843015815003954,-0.00765464250756058,0.4487940531031904,0.0005867182386713188
503,0.5485067562519438,-8.949189334207261,-0.6575223082721927,-0.0056873744966410514,0.4447745153220973,-0.007063029005787387
504,0.5910407443384652,-8.638608443390202,-0.4996401681110989,-0.0031813272301886466,0.44098101218179087,-0.007050660143333044
505,0.31389591863829597,-9.223329506810646,-0.2996732623503935,-0.0007245063433024717,0.4361184895473073,0.0005286929784615922
506,-0.02282327836451334,-9.731888795323389,-0.2105064518513881,0.0018315250628302508,0.4283956961024042,-0.007053140485013497
507,0.5001025048106691,-9.190275149928512,0.4151586510187199,0.0035858944226933647,0.4237366041951721,-0.007020855999702001
508,0.5281821938184701,-8.882591832802355,0.3044940003468811,0.0025255263598544467,0.4244579376128942,-0.0045322025841039405
509,0.38165309816859916,-8.992413201035054,-0.36963714313920487,-0.000978929165926599,0.42618604060370385,-0.00526487264764423
510,0.478355238073999,-9.401503871612611,-1.086265789872343,-0.005701468348527271,0.4240506583037401,-0.01069307039227516
511,0.7333417230136264,-9.57303775287372,-0.9104159172155435,-0.00905757497420451,0.41455828428753555,-0.008154944803353607
512,0.4702115773230789,-9.517264814946708,-0.6255190639234767,-0.0048845181630754585,0.414388555736121,-0.005557922153486697
513,0.45966706560276605,-9.460681813369629,-0.2879453253964521,-0.0015279299631263032,0.40904701202778837,-0.002399221305097675
514,0.7059245395306929,-9.279931384354695,-0.06981157940666943,0.0006131066584811065,0.40075045191517267,0.0020761130017808585
515,0.9490528235148842,-8.993908098486532,0.022673322273617548,0.001989133067728394,0.39388838138959725,0.008057706852854063
516,0.42243966076056005,-9.246334683393702,0.5759376722337414,0.0019505517250477944,0.3921348505981679,0.014004655800367256
517,0.34893158901308535,-9.35679646410799,0.024524996158363177,0.001251420493720084,0.3912331407157912,0.005360944666916622
518,0.19371139303665108,-9.196302016960864,-0.11740624016822562,-0.0017258960061618581,0.3898424634216151,-0.0015210916478375007
519,0.13607199925369828,-9.34182864442753,-0.29086721640934865,-0.005213562040316545,0.3888277945485058,-0.003212263853765536
520,0.26414499577148276,-10.044931340940227,-0.8409933876419913,-0.0072056879174524115,0.38748007847735977,-0.00208571422532653
521,0.07865578695743512,-10.263319897166513,-0.973172155363026,-0.00629803218580693,0.3789133896363939,-0.013078570014825507
522,0.3257204145375652,-9.689037673325327,-0.49491334010710886,-0.003986616292136968,0.3726064189566427,-0.007136858353975854
523,0.2832910875099694,-9.455696550290185,0.1189780901538943,-0.00043289426789423877,0.3687973746358364,0.0005579270690310241
524,0.2707835483711246,-9.479800117336982,0.24646116794278,0.0023634343661477772,0.3630324505492908,0.003406223617201404
525,0.49681408330513854,-9.625201630317667,-0.33573437481990787,0.0026964243946540926,0.3546170062494202,-0.0005362724629249783
526,0.41263428405443625,-10.1312219803935,-0.6403861097033038,0.00020737636661098596,0.35635514167592697,-0.003118574625438899
527,0.5406262219412374,-9.259353629448361,-0.5568611687271018,-0.0014820535409911131,0.35185590893016994,-0.01183994361297667
528,0.3626401793780694,-9.515004770436065,-0.29002627146395193,-0.002606155014650073,0.3495235441273702,-0.011107281503958307
529,0.300201105822151,-10.269189832633955,-0.15182844778308957,-0.0027724876965436185,0.350063306965254,-0.008650167185092771
530,0.6629988884987438,-10.622750634504428,-0.32240546986700724,-0.0020559986587354315,0.3503063408778767,-0.01105184896094316
531,1.1083687566274127,-10.04924801137031,-0.5786913805232267,-0.0020437982889661144,0.3382465260652268,-0.012707884221439248
532,0.8995094362574906,-9.355421361788421,-0.08603266513289534,-0.002893753626948766,0.3316096363824478,0.0010753085713142564
533,0.8455361002129109,-9.44027598551698,0.13394021487870805,-0.001009695475077226,0.3272517571919944,0.007965027404563344
534,0.4820576260781585,-9.415507096057716,0.3166910485396331,0.0013043370621991521,0.32345066438555636,0.007052020448165655
535,-0.31281079877820517,-8.92266918409369,0.5924963891842767,0.0012126450934454827,0.3195805479590721,0.0031980223639875814
536,-0.2408664354651049,-9.783671370390563,0.32605791014627145,-0.0038424525724151466,0.317827705805253,0.009933270667017284
537,0.20934442602827938,-9.927567434862157,-0.05970571046468866,-0.004996251781812277,0.31456079533421094,0.0035391349807838983
538,0.16386440955969753,-9.65466815262814,-0.2852118529579507,-0.003570232227178115,0.3105709631321311,-0.0029412197854019042
539,0.14968437663758477,-9.196662284659578,-0.3607283283001717,-0.0017509405647322816,0.30805211662490456,-0.003923457323109481
540,0.4852719097116108,-8.88884069140493,-0.30891941122601374,-0.0008095270356648735,0.3066015542450441,0.001051749535983316
541,0.44954443677381756,-9.400746440410936,-0.06491885245798237,0.0008610843850207828,0.29797943465187343,0.0011016141278152513
542,0.2286760682022314,-10.058191621778928,-0.25898317573654367,0.0025269025672164337,0.2940913948662937,0.0019122755560985283
543,0.2635379104805169,-9.326082564046835,-0.5382659712140399,0.0014417755737558306,0.29238878058953843,-0.0023376820588374577
544,0.28988461573667307,-8.877987127003145,-0.7306826457375396,-0.0020966441497121974,0.289740574509856,-0.00420452103554771
545,0.12280628407091465,-9.696400773388262,-0.8224908503488103,-0.006149479792482918,0.2845539443859302,-0.0007090741569757499
546,0.0009413421323979047,-9.963942438732085,-1.1735165804928192,-0.005285638393295425,0.2794013939135367,-0.0049243707390936985
547,0.47413834995608445,-8.671123058908305,-0.44979250076616406,-0.0021168063573419266,0.27662661907031993,-0.009900171237379608
548,0.24663775313483904,-9.016295524878688,0.07226398202820052,-0.00048164118605393934,0.27171042792568184,-0.005304527177263827
549,-0.17545992300064106,-9.788668667729292,0.3992453717909531,0.0010261377620951148,0.2670999723976513,-0.0009190567219065403
550,-0.18833557754934593,-9.696241094701545,0.39540605267664497,0.0025504159492629555,0.2636423522712033,-0.0028575988063481673
551,0.5908169829571549,-8.4376478522904,-0.8988123489406914,-0.0007947908161543908,0.25588275173618347,-0.0020216089093262
552,0.2691486615077031,-9.720149392850535,-0.626651953161509,-0.004119981798457592,0.252106600747178,-0.004325575283100583
553,0.20813210628669138,-10.265153478388958,-0.9087756313857178,-0.003500777249566107,0.24463353040689856,-0.00968729045973949
554,0.17727576870433415,-10.055385045072097,-0.9888783240380307,-0.0009885461731235974,0.24170002114237066,-0.010707900694130055
555,0.06543794294267113,-9.42311002450375,-0.3767816031095619,0.0007541885632158243,0.2447271399960841,-0.004200242097455164
556,0.511297228508891,-8.647013115350543,0.009129785356369248,-0.0009477777592603751,0.2334972978686383,0.0009109550786219982
557,0.28583877620906273,-9.6263581998056,-0.1794784204809951,0.0004983645797156953,0.2326588497345762,-0.004161162883915247
558,-0.02491929410647313,-9.832133248903252,-0.2813222924142388,-0.0011864796981429617,0.22861016523515693,-0.007250118655488889
559,-0.1063393842342756,-9.576547129885613,-0.33672937934400954,-0.004548178899839374,0.22329364047755224,-0.00392880544391799
560,0.07423399367185758,-9.46772121154293,-0.4080632504841389,-0.006626078923934334,0.21924772861665268,0.004019312262998315
561,-0.06867589807933473,-10.152259426943115,-0.4341807491550034,-0.0024339408772992392,0.2166705052294377,0.0015329474488089872
562,0.4813835239940148,-9.503694009256428,-0.4846131462408836,0.00019747467337484677,0.2148813209932833,0.0013809000617783567
563,0.6234213012747613,-9.00315501221571,-0.015876507876051882,0.000979648330013065,0.21080298463558217,0.005994498748680136
564,0.29490296164486735,-9.101527229945752,0.33154864178742705,0.0009830802324759975,0.2056325671338794,0.005560313906480303
565,-0.16303514020084314,-9.574572266329273,0.09012975839281925,0.0003002724934570133,0.20065584931161645,-0.003112086643103603
566,0.32736113217818336,-8.813704933831051,-0.5697570407869799,-0.0038635545978954874,0.19635752027859274,-0.004844298072088366
567,0.12937115414356065,-9.423569281208282,0.24478502705564584,-0.0049848744395377,0.19441392504490174,0.002113341249659221
568,0.04946294636415234,-9.472875661565903,0.09003140167161114,-0.0029953174781641783,0.1891726555957858,0.00346065941709887
569,0.14561940696393527,-9.459600926178803,-0.06465332556502723,0.00033989362570339336,0.1852274407531483,0.004365666450483073
570,0.4005968499227306,-9.524187916219669,0.4484362785255696,0.0027628225578956176,0.18397377773257242,0.007118526307977099
571,0.8053450707386076,-8.401432079497486,0.8866450355752474,0.0011205497038764306,0.17709957226078404,0.0028790894012513052
572,0.6519688552934285,-9.165147841438039,0.053326631653393575,0.00023993981928561626,0.17261886883882965,0.0010083678447257026
573,0.40338318881755797,-9.495738306421373,-0.2764972483333548,0.0005983465249136894,0.16952424939098987,-0.007607381699302887
574,0.3286655928908572,-9.343354162878214,-0.4161064269188427,-0.0007073772967015668,0.16583887623621746,-0.010706073577654528
575,0.4625953915748536,-9.169060244075595,-0.6503718198189509,-0.0038680812891632214,0.1614166200195343,-0.003168241133090919
576,0.3559023901989634,-10.161412009918763,-0.7728413071796076,-0.002220333453519369,0.16053603302190247,0.0002495316046961718
577,0.41488247268132045,-9.771154731627425,-1.1915772940736267,-0.0005403640655613356,0.15405206119017784,-0.0010614313424605168
578,0.46913124108609516,-9.12367008822718,-0.8915690011162319,-4.498740347192462e-05,0.15066318968628,0.004216166231984809
579,0.3281908507568766,-9.026089064678793,-0.6640138282519227,0.0006580762393428371,0.1481746940335389,0.007566737252939164
580,-0.030498423668818393,-9.580710696489506,-0.9550693942747721,0.0015947824798665398,0.14364013189557065,0.0021651174033275097
581,-0.26982355060831514,-9.422940370269572,-1.1387980922341405,-0.0008157372505458608,0.1342300847420561,-0.012259609162188712
582,-0.2469672559374415,-9.46874458914414,-0.7495628528318288,-0.0025550375151045697,0.13199105552038198,-0.010038000533790652
583,-0.0028818852035293885,-9.61259195258444,-0.608199498557924,-0.0025339417540934345,0.13083843500228565,-0.006057148875387644
584,0.3270701010342857,-9.883483932162513,-0.6409639848358457,-0.0013691898767759707,0.1273178850977416,-0.0006770494707623532
585,0.585692536054374,-9.954328572081783,-0.6298960239110265,0.0004176576022319444,0.12151654669716977,0.005520570026766578
586,0.5744359349917828,-8.654680968563115,-0.19067069393037245,0.002901091837587507,0.12063609709282758,0.008948376656100175
587,0.43565552977313143,-9.161299241283054,0.40295720253133704,0.0006988338969558613,0.11330271496747302,0.010751602658244234
588,0.3583649631295712,-9.508368550683082,0.022920099074871997,0.0011390083854384036,0.109156062232819,-0.000375170263358586
589,0.3134929107253447,-9.446391633922318,-0.6008136905708588,0.0006842806644232533,0.10624617950770171,-0.01139110751933253
590,0.2191115880324526,-9.165392671330082,-0.8428408369186705,-0.001704755143685024,0.10296630201948134,-0.012075699982674794
591,-0.09117906734509512,-9.492985695210631,-0.561695838461645,-0.00010587121447210277,0.10032550382053029,-0.0010140052154233125
592,0.09565865466722098,-9.83104795267115,-0.8088379274167118,0.002350403615459624,0.09692732874807611,-0.0011041595441871714
593,0.27963343189287604,-9.163096939331227,-0.385058331074273,0.002518001193529096,0.092264533571238,0.003923444288015913
594,0.175717437538092,-8.799114073704732,0.2572563266352106,0.0020138785281315604,0.08858457356755225,0.009697887884813232
595,-0.11158674777587255,-9.323867928474053,0.3753747522095965,0.002013167386637463,0.08603451560016098,0.009852319592653442
596,0.28533079403993905,-9.553381228244648,-1.1967975102359352,0.0021022834058340733,0.08006726331451242,-0.0037057573580609013
597,0.2926714287220842,-9.531953466259496,-1.1017886378524941,-0.00101867335956319,0.07486672571310386,-0.007710782364122798
598,0.2438287741958872,-9.469205118693793,-0.4211926086276603,-0.002643758679960734,0.07206857714409526,-0.004649196197281515
599,0.26311926919613987,-9.943272213743446,-0.18860068600386493,-0.0020366438661709313,0.06878667346752783,0.0013107891299046603
600,0.4555787781883312,-10.549172078487356,-0.5972750602339209,0.0004358584261681445,0.06459005845394548,0.006473835292959407
601,0.9376549541298533,-8.837786870780834,-0.21189923394133756,0.0029302836019111955,0.06457974594120086,0.00820089579509345
602,0.6575678155338552,-9.08588155854114,-0.38327052566086817,-0.00012679673451426558,0.058037610834782635,0.01469344122042722
603,0.14212026874825845,-9.780242857954878,-0.8463040699313755,5.547784608130014e-05,0.054166779922016406,0.008522472584911542
604,0.122262786141128,-9.763613456740453,-1.034547737983487,0.00032745978590006757,0.05011128432350567,-0.00523325736883585
605,0.5288567817226396,-9.042038454983606,-0.7490947409706871,-0.0014353401557675096,0.04463842756788839,-0.016034085364731207
606,-0.2703618937215287,-9.797594882731453,-0.5030374457146504,-0.00401245607629191,0.04113834250384279,-0.005019562837686596
607,-0.09514121906607904,-10.04166836659527,-0.4679831306380518,-0.0001860028008009299,0.03850805381564555,-0.005984478591220713
608,0.34443846133130507,-9.395524722644605,-0.4095913726424246,0.0028094392541570742,0.03290181808833194,-0.0034832809679874056
609,0.706819209470449,-8.955072390212203,-0.1829391659617407,0.003397657715975149,0.027513937005262737,0.003827764144925033
610,0.7063088317078642,-9.267236282913673,-0.05966403281748639,0.0021754273983399315,0.024371617038998174,0.01148735134947234
611,0.07740742451520044,-9.734091111298984,-1.1148874033359053,0.0030492338000299097,0.02267632759786623,0.005562353133945076
612,-0.1055583156455902,-9.423724755303972,-1.1053910863885188,0.0007843469213919918,0.018551726010075213,-0.00522487463745424
613,0.05625839165869326,-9.2436284080328,-0.5742886090148154,-0.001122856967542085,0.016063115911216556,-0.007364882435240942
614,0.26013374871252337,-9.508023391829536,-0.25545101808617576,-0.002059555204369912,0.014325913005240307,-0.004526031243258569
615,0.388250694245751,-9.912462976108454,-0.43968185702379237,-0.0014145602815564026,0.010849242653035147,-0.00043262047981921007
616,0.6794540695606806,-9.073965093212035,-0.626284671869948,0.001905447404640705,0.00048550908975445237,0.003038013046877145
617,0.7331627665813178,-9.292014351502985,-0.073852611483487,0.006781535012156513,-0.005802284970067853,0.011358245013807392
618,0.15488835459189618,-9.674257390780031,0.04598370901493855,0.005897124483999742,-0.008228469668131063,0.01626795771897685
619,-0.2176270202295087,-9.619913024507264,-0.1824451644409374,0.002982761261707464,-0.009051921328260685,0.008873118958509969
620,-0.02531794557319814,-9.141315198512737,-0.4208315493059935,-0.00010138886334993776,-0.010361769578399219,-0.006526008555896131
621,0.15919242836584124,-9.2907434815224,0.0065276981798087635,-0.005974623022838559,-0.013825968379675698,-0.002341074993570285
622,-0.19642570893809916,-9.743815170487855,-0.36918969872642765,-0.003101744138930459,-0.01237590469454588,0.004361562264087737
623,0.15756974853222183,-9.60721541141227,-0.2980342036809711,-0.00034641338814410145,-0.01854684977296321,0.0040313808701099635
624,0.6480889109455251,-9.137903845789335,-0.26710015238241513,0.002161735426581421,-0.025676210884140613,0.0037808947665390106
625,0.8428691319039467,-8.755735363529759,-0.4180467770037613,0.004304185667352658,-0.02947115282619999,0.006865538417803912
626,0.691639143715185,-9.076393562049512,-0.14277730875182063,0.005128183140988195,-0.031204601414433368,0.008578498083430997
627,0.40562663016464096,-9.809468244860305,-0.41796069162171007,0.0028438114977854378,-0.036993316909136265,-0.0027172141132846476
628,0.5724940612316294,-9.552287534614461,-0.5629510639131659,-0.0007959051426016774,-0.03872489932890521,-0.009837836437910648
629,0.6714275178214743,-9.214902056422481,-0.46036833941040584,-0.003066448424041219,-0.0399092959961478,-0.00912995262495598
630,0.44335063312134804,-9.322574793852592,-0.09516648850340206,-0.002769575505752386,-0.043609396574670084,-0.0012985074947219298
631,0.1369753172437918,-9.596567640637636,0.44290415193195454,-0.0011536081309377487,-0.05141118478422407,0.007235622761274576
632,0.6563117448315634,-9.157579927125123,-0.18016522853735312,0.0029161126397979197,-0.055868955406069794,0.0076513121206053325
633,0.688246609050797,-9.002172274852278,-0.40757650001843926,0.003511382430512189,-0.06264543524097282,0.011895430739244435
634,0.1933585928535755,-9.326215860082478,-0.470368764877371,0.002681501426839657,-0.0680215984981286,0.011211153519884493
635,-0.433136756501412,-9.762669062056876,-0.5714583922499995,0.001727562044682,-0.07074603233905892,0.0025428490588181307
636,-0.17619260181180219,-9.075144199933973,-0.736079963080987,0.00011817612716990394,-0.0741471862505746,-0.006801012493391424
637,-0.22354155314478336,-9.686254364157826,-0.6607363406952975,-0.001581549641862521,-0.07844511322588126,-0.0022769646470188858
638,-0.08648954676209195,-9.751026559014347,-0.48159224022364433,0.0008874655479603814,-0.0864534297793114,0.0010612596392764423
639,0.1547503538289782,-9.373866813788833,-0.23129022497619633,0.003871237046693955,-0.0915815059167515,0.006406655841246418
640,0.33435514538596156,-8.869447812809645,-0.06249254452098214,0.004610652396226931,-0.09271436614121731,0.01292034272517325
641,0.18067807000967934,-8.751480662058588,-0.3375567286850024,0.002111961819628477,-0.09788083153268493,0.012059662855235707
642,0.5112042171352883,-9.180014502399189,-0.41487482200936127,0.0004859663788934076,-0.10133471405710837,0.0005739337451039581
643,0.22493336034526712,-9.833516975177918,-0.18784107703324016,0.0006461900342551101,-0.10290507986355994,-0.005847559192698835
644,0.3068236249888569,-9.670940650935139,-0.12318608220702221,-7.350082550313525e-05,-0.10577117495680927,-0.005358709833365317
645,0.8651246744777997,-8.872599388191782,-0.4715749726771258,-0.0013595918636827825,-0.11060089391955734,0.0005838936353731252
646,0.5425985831626088,-9.53113282983938,-1.143801160132355,0.001943166030159155,-0.11408078070946226,0.006576930841204133
647,-0.036567205215187554,-10.040638847009166,-0.4637013767392876,0.0044918229668121,-0.12001755541797286,0.004372734799706336
648,0.2866310834653661,-9.458998096128157,-0.6068396586304092,0.003971855882709988,-0.12484258134811746,0.009739937182828763
649,0.5933480517224572,-9.077616705487937,-0.4598132578831533,0.0034601954852428174,-0.12634367315593942,0.011489884105102263
650,0.4862792250709056,-9.442057404080284,0.11345730440580923,0.0036194470039517244,-0.12683157152420763,0.0037068205964838866
651,0.44125282082052997,-9.900367176259685,-0.3894524316151059,0.0012088517798324273,-0.1353789706004606,-0.010721685631285331
652,0.2450866155881542,-9.6422931690453,-0.6529319417255706,-0.001325603210415279,-0.13734343326982099,-0.006275762625924998
653,0.5177136650209787,-9.542440377650298,-0.6416137077517641,0.0003378411615901259,-0.14095229202594858,-0.0011510726993606657
654,0.522452596466902,-9.692288298979372,-0.5581802504535679,0.0028802405460473055,-0.14689367412691878,0.0012043519102562196
655,0.22414782805605538,-9.857161489394374,-0.41997210887593933,0.004186674139087081,-0.1537031521569843,0.0007681447590845523
656,0.6700071136222397,-9.358893909625271,0.04251168973536077,0.004181463565221102,-0.15715625953759446,0.0016285556464165686
657,0.49557908779543663,-9.53558350014034,-0.09419164303837467,0.0033445385002085297,-0.16062404375518158,0.005774404997561201
658,0.36860205376972605,-9.502346641363905,-0.2591177385440803,0.0031240717574370558,-0.16281941975411446,0.0039030719256635473
659,0.3806267572230419,-9.593263277755423,-0.4846142793767182,0.002361362396157885,-0.16411719587130255,5.469242192249072e-05
660,0.44392535075161943,-9.753604214521246,-0.6369944921522225,0.0008938507314212337,-0.1657313546582178,-0.0025978664108571377
661,0.24228536649991025,-9.320451247004334,-0.31109017397251115,5.935142087329809e-05,-0.17004147664983604,-0.0025929872648884533
662,0.30298282949442573,-9.161796085106463,0.12307928135148828,0.0008007997872211834,-0.17438845559385463,0.004862473548555674
663,-0.10270308637163486,-9.688258289086127,-0.05772211630946736,0.0028589246019629193,-0.1793134392466552,0.002719177891039597
664,-0.07522477311297834,-9.827682204890639,-0.02370332777964082,0.004604070121892267,-0.18609832513094582,-0.0019707740153439893
665,0.5604058974066365,-9.31059493778931,0.2777702741481811,0.005070610666033993,-0.19335908297945636,-0.00285703675536478
666,0.9421514986598725,-9.002156801071036,-0.2257275427721657,0.0041861410490710745,-0.1959820757554357,0.004779834345623088
667,0.4905818649968626,-9.616598207157402,-0.11882454346650961,0.0033554828292357433,-0.19688291854269033,0.004135067683875793
668,0.03449932869205856,-9.720974679255963,-0.49408117454605305,0.0007483522836088118,-0.20208800725484732,-0.002886976361332304
669,-0.06882616444991707,-9.53720781055911,-0.8071034068822808,-0.0009738446597227828,-0.20567778166750778,-0.006975613490600467
670,0.22855641325090414,-9.357850554661063,-0.8121937479198856,-0.000993686869012201,-0.20588845903239292,-0.0039294273022505
671,0.5936618216289019,-9.51754783384927,-0.7055126121121068,-0.00104342037905324,-0.20678845702206383,0.0037123074428796507
672,0.4789013788899672,-9.890345287899365,-0.2682020716828377,0.0038753815890473784,-0.21269536681925189,0.0006445492729729945
673,0.38804497329678567,-9.620308607965706,-0.16552396291472882,0.005880788536063377,-0.2193332868527489,-0.004557518202756533
674,0.46955268918965043,-9.388055742934892,-0.09520688764573393,0.004711540983957542,-0.22582039624255748,-0.0035827544510005317
675,0.5521429558331579,-9.504970504783097,0.057802018155407024,0.002469078021971616,-0.2311003634205831,0.0043121837707366575
676,0.055384256766579,-9.77213959998422,0.1395846395129493,0.004100387546988629,-0.23371706768511322,0.010281370732942581
677,-0.11285523790664252,-9.255700781029184,-0.13237624152358873,0.004133301825873703,-0.23545946243129862,0.010407073640273984
678,-0.2900941186839561,-9.759911301422626,-0.21383111999104754,0.0029301160345107853,-0.2403193316589547,0.007929377128065058
679,-0.08768638582550559,-9.838537481545913,-0.2403845833861213,0.002083583780657626,-0.24509420748423322,0.004949393181320362
680,0.4746566902450913,-9.256119282670515,-0.2654705161302793,0.002284937680115994,-0.24813723798074974,0.0037931294769999783
681,0.8519975345606895,-9.371556673349964,-0.22113311068008512,0.0030978635241844335,-0.2498781794792108,0.00720385230675866
682,0.4529277758867421,-10.184728191228102,-0.5672876897042864,0.0048237250562580625,-0.25578492207020526,-0.003533623648065374
683,0.35478499398482,-9.778232240997855,-0.5420368749837827,0.005301654812980094,-0.2611645831676867,-0.008322930196471198
684,0.5914823826236991,-8.76444370885455,-0.5056674435274914,0.00404875789241484,-0.26470044779357493,-0.0018444459156242866
685,0.7610816390735474,-8.276273887790667,-0.4876165492361617,0.002042163323936079,-0.26648898968500645,0.011681284153500922
686,-0.058203151308179414,-10.061034545761238,-0.08616074675980662,0.002009115160455658,-0.26823837135192186,0.01677974846940214
687,-0.06257962088240841,-9.891831628987132,-0.4024986550895501,0.003718826197407174,-0.2750079934754003,0.006873227349889743
688,0.24189261424069852,-9.214487004721288,-0.4326928804491973,0.002352948977135061,-0.2787088558201723,0.0016770601517324016
689,0.39905405025102614,-9.166263131453634,-0.18724326614550715,0.0010709421589048533,-0.28087052083498043,0.0007481176318656878
690,0.26455516962445325,-9.926567296707441,0.07749336506700778,0.0014787675492992506,-0.2846234030234307,-0.001148929014233804
691,0.05606334124774129,-10.559986091946689,-0.1716445312157971,0.0032388757920911388,-0.2949027915644119,-0.014672035580067804
692,0.27122270954585065,-9.738662831241303,-0.020040309440257826,0.004937641971390924,-0.3001225100499582,-0.01899818659730669
693,0.35765642636776274,-9.715816866357645,-0.28368985487526205,0.005313575163211105,-0.29961893371791626,-0.009466204106333748
694,0.46513503192663447,-9.876225860048716,-0.5493951745717872,0.004425799754193004,-0.29876973706221577,0.0016339934693165707
695,0.6462706091057093,-9.710264437053523,-0.7750525859787603,0.002716725456600365,-0.3004832813688749,0.007636968721855473
696,0.8322492353572364,-8.863440534194877,-1.3660133604820908,0.0010410064914468907,-0.3047968806436038,0.008480295809612085
697,0.353866827079643,-9.22826134128433,-1.3811574924488492,0.0009964994181568879,-0.31168632392175866,0.012711060773848593
698,-0.02805645847484406,-9.55290783120978,-1.0094364046045563,0.0034822223104024955,-0.31793690119975826,0.010725734719958847
699,0.18416527343134148,-9.799837082449375,-0.6420219255225823,0.005649122126113761,-0.3226631536698591,0.0023606729120970063
700,0.798029049302458,-9.857792224360264,-0.5386585477650057,0.005739692685533658,-0.32648179347390077,-0.006876544797140418
701,0.8533332197404268,-9.514053050343051,-0.8149948780180911,0.003223618549604145,-0.33165989637397436,-0.005191782985799417
702,0.6572065723291471,-10.189654399824875,-0.636338550246336,0.004831509570093416,-0.3317244456674497,-0.0009489493600568014
703,0.7096855180445023,-10.86962330927132,-0.5847942980888814,0.004651825952213583,-0.3381170240475986,-0.002355772407519437
704,1.062683455355767,-10.423123119442545,-0.3470280431269527,0.004210469774697694,-0.3463263067386566,0.000548236318498688
705,1.4187259211687133,-9.2036520686835,-0.019106809430099674,0.004344019037862904,-0.3520379959040573,0.011352659255402707
706,1.102072839103529,-9.177690853274813,-0.1512486723117932,0.005079222946249195,-0.351251531993355,0.026635616530912464
707,0.7396843203123633,-9.750095970961281,-0.5408780510586033,0.0034291833929653566,-0.35295582609972875,0.02586772759878045
708,0.6179490769290896,-9.226965904114632,-0.6348489934678694,0.003082995151122766,-0.35654567654870334,0.013649758276324885
709,0.43067813701663304,-8.998663102828008,-0.7813696089399305,0.0023418486104216825,-0.3603636482228948,0.0004707452233193264
710,0.21489046270065587,-9.488910694013171,-0.7824716260517677,0.0013366668414813334,-0.3641984861454951,-0.006999658334479051
711,0.3744405473269744,-10.084349037857526,0.14480796086917705,0.0021673039699946005,-0.36937593526086404,-0.006123250427739793
712,-0.30535263175751876,-10.236101025331408,-0.23222133263455724,0.004655528862563653,-0.3736992311023238,-0.004383527251787351
713,-0.4396265973800255,-9.874739943090677,-0.11557225489278089,0.005294610905316413,-0.37542952008623715,-0.005208949159442023
714,-0.16171044925791964,-9.98206519582287,-0.20816832606344363,0.0036269979153169423,-0.378868471113462,-0.004380316835069114
715,0.3546791743220866,-10.299639074670464,-0.5533147800493519,0.0012908408868032182,-0.38449776961491844,0.0006918384076324135
716,0.9008690345765713,-9.292395611205608,-0.5082827745568932,0.0020605167685147606,-0.3888582266062464,0.01090098439658901
717,0.11392066067183493,-9.487983361482327,-0.16956314709580156,0.004518963823318516,-0.38803744794184125,0.01772137733733451
718,0.11335934882787972,-9.88774099979721,-0.19360614531837583,0.0032833595673032985,-0.3910403683225335,0.015601724727795887
719,0.4160686894696985,-9.855132012256885,-0.4626682055748128,0.0012377513588174138,-0.3961798891843099,0.0092295595715553
720,0.6212673586060762,-9.397704096507322,-0.5411055744108104,0.0006516469854983908,-0.40067332048483967,0.0035142068843459803
721,0.41518766162423454,-9.166289065607387,0.3182170516725234,0.003156156445446358,-0.4006924361549026,0.003535904963762946
722,-0.21224549325608374,-9.82639462454929,-0.18312288544479904,0.004871532642768041,-0.4144531699790505,-0.003186613807830378
723,-0.1320891072101639,-10.018231972728318,-0.4690374425746808,0.004037828192035508,-0.41981469428389256,-0.004224740217746994
724,-0.23738067756416556,-9.761635336998392,-0.26334215515131587,0.0027685071428536954,-0.42458003401685257,-0.0012425339329241861
725,-0.40693828065916554,-9.374273478449874,0.1966306078124062,0.002745868487099134,-0.4297563395795809,0.003867306431963506
726,0.4539672270478727,-9.459845348183794,0.17620639033658836,0.005205424028046144,-0.4297893851530275,0.008971371304881305
727,-0.02957720120622588,-9.488519579839497,-0.30041099486977507,0.004370682801344337,-0.431513193069919,0.008967307158198476
728,-0.3038301360299635,-9.760045468332878,-0.5103837350994743,0.0023093689117430734,-0.43321033754090454,0.003827459875532895
729,-0.16498425405735306,-9.951494732302763,-0.3384177315884194,0.001953755933901577,-0.436643604446705,-0.002526490703309066
730,0.3231970295112514,-9.937515708148085,-0.1948097269589876,0.003636515419473382,-0.441808661975438,-0.004311331484783936
731,0.8390772147862797,-9.781820619236342,-0.9675306725020699,0.005235697438733127,-0.44701157699872124,0.00586499903011016
732,0.6286277166594958,-9.929407510310398,-0.04213237385393789,0.006054940408038846,-0.44874837000291395,0.00842724664353869
733,0.5100077378105378,-9.84518898997082,0.294715871632105,0.002455669765825767,-0.4583054127169064,0.010320889478356804
734,0.3139527370222655,-9.763233680406998,0.2876177918952787,0.002081873469635068,-0.4638327340431392,0.013754785292850992
735,0.1221777154847125,-9.733610936996218,0.11540990947662363,0.005372950370550777,-0.4618798356516163,0.017348933553207824
736,0.24141065222301938,-9.642850718110955,-0.09626425446674415,0.006151062064680954,-0.4568115541318016,0.016470956026319157
737,0.28056404722334083,-9.931977468759762,0.09945849965624579,-0.0005076464233371508,-0.4645477151473483,0.013022801438177864
738,-0.09518085865003786,-9.572618901092172,-0.08004599793191244,0.0010820178792061226,-0.46835908532244347,0.008371534217748004
739,0.30177769029287144,-9.214709814863376,-0.5840140918268186,0.004443227573850045,-0.47179932601955443,0.0028986125318314674
740,1.0761665009452936,-9.241324086299013,-0.804894277548478,0.0056830561223132035,-0.47742784723439113,-0.0027874594104720244
741,0.4473662774803125,-9.788458711765461,0.33008469609518304,0.003238452066466643,-0.4868558879970607,-0.007867151282485321
742,-0.21726260265014458,-9.84816970222095,0.4178805437786092,0.003266773412695413,-0.4937314326255159,-0.01208732092402827
743,-0.26300394647835545,-9.505993039890322,-0.012111921978311846,0.004527676574733552,-0.49276108565595145,-0.010503981947284951
744,0.09573883647016045,-9.342330560039537,-0.2296495855416751,0.004892891966005399,-0.4897714399104672,-0.007114987652672398
745,0.4290350620660897,-9.451537166516905,-0.2093107427236886,0.0033709792793516426,-0.49060085129913833,-0.0026213427856394463
746,0.12990232632922585,-9.51765446531683,-0.5189755626381146,0.0001023283272192493,-0.500866955486274,0.004958565364857056
747,0.0447436922035266,-10.038427126313927,-0.39903902858238516,0.0059262372395735485,-0.502611925512168,0.008429470672435295
748,0.6517865030450524,-10.065536656103301,-0.17997618461082787,0.0060098329336763685,-0.5030359465374726,0.011826883851270719
749,0.7078779866057668,-9.731749258831805,0.17254847446084237,0.0030379968942694452,-0.5079204207302872,0.013893478853154707
750,0.2254955541873922,-9.507524375480926,0.381990948727841,0.0006332374812705516,-0.5153459872123072,0.013839605250075668
751,0.2557707896627906,-10.121050393194196,-0.06692410598433925,0.003155312687812544,-0.5169402195179221,0.01135523844387535
752,0.37518864441377103,-9.973492437305772,0.007515684994591593,0.005665772955361149,-0.510903621560994,0.010515978301078453
753,0.020709642146623602,-9.698009668003273,-0.25656539707111425,0.003720114502966292,-0.5147531422944683,0.006406666812725433
754,0.16830418365061808,-9.494527503264848,-0.5283282323646787,0.003433151310672385,-0.5189522997550726,0.00132530807740208
755,0.7003864159501615,-9.642338716236107,-0.7793197650069676,0.005297468436921874,-0.5208867754354075,-0.0030579442860964806
756,0.6220450167403504,-10.448821679551498,-1.1970836994649823,0.005314223464807857,-0.5235367525814719,-0.0055798483045861515
757,0.24519358986225603,-10.17258733559224,-0.4147981796572845,0.005325934882489441,-0.5304247523752526,-0.0072529706529238175
758,-0.027484253312261092,-10.133614385232715,-0.11251853016066996,0.005303503994029285,-0.5360137596922335,-0.0037141235104370795
759,0.4417085420236761,-10.070469083060589,-0.10097647679876115,0.0070182633089460175,-0.5349379955569726,-0.0008076519388724516
760,1.2475028027895154,-9.779557089333167,-0.13362919397185394,0.007864310617470295,-0.5303794722452277,0.0018660820739781286
761,1.1544962370329093,-9.138855599800083,0.06625797361612021,0.0020711852438398573,-0.5322400277549523,0.009373592643107005
762,-0.2452376342285837,-9.810516507628712,-0.43637644551359855,0.0012084728119350458,-0.5391572127095119,0.013630625523690619
763,-0.04435304979621446,-10.07611456970729,-0.2826018837635703,0.004246668809932865,-0.5407325019223088,0.012028420936128163
764,0.3002760722330733,-10.021346010048465,0.13109902723238642,0.005840798735073577,-0.5438564988343905,0.0073357693539045365
765,0.3766568253460996,-9.956112737958232,0.3208848135088068,0.004811562306650718,-0.5500993778688462,0.0023269748699136722
766,0.5256794594560918,-10.326100192318755,-0.222372960993719,0.003271905675924811,-0.5566124850460943,-0.00019623895618497736
767,-0.4384728924268758,-9.514554934588213,0.3343929647445558,0.00662247919809507,-0.5471250693890961,-0.0018858771152174974
768,-0.2651639842239401,-9.02390656866263,0.05375802584662888,0.0034996931224384807,-0.5449762252909026,-0.001003663541279921
769,-0.04214390687509129,-9.246380280590996,-0.4993671338877415,0.001563278148415886,-0.547674311136222,-0.0028763020413145996
770,-0.07885891038280518,-9.66866516509571,-0.8859992477731823,0.003109150934582112,-0.5525939867624814,-0.00630300461529596
771,-0.12128667884668465,-9.154239503158164,-0.75177640904929,0.006381397095308085,-0.556997168083751,-0.005315303776257251
772,-0.23434210691014296,-9.55946369969896,0.00851172321832519,0.007189354281664498,-0.5647775310375502,-0.0010352267665140532
773,0.09023108578718424,-9.88827828945652,-0.014622392848736274,0.005402262561232588,-0.5705526479099778,0.0038654399896681816
774,0.3833738751494465,-9.404407620749826,-0.5711654361364136,0.005505439601143138,-0.5671282703206187,0.008054372898395397
775,0.3791853622853607,-8.851980749121873,-1.0071172040817513,0.0054522323313500355,-0.5592733547699537,0.010482104196252283
776,-0.029219285157512074,-9.95910615275775,-0.43948536777608715,-0.0009997042580981669,-0.560247137312206,0.010292135930304607
777,-0.41096488641074785,-10.264102156191619,-1.068329704117139,0.0006982557244211834,-0.5654003583655121,0.006086857207447753
778,0.033823946987339704,-9.932326284198968,-0.4736945695313072,0.0043367904967477975,-0.5658674156370074,0.003208827565258773
779,0.29196701888422016,-9.695122232051569,0.058880171179076325,0.005004748321500106,-0.5718225941363572,-0.00020585698903807987
780,0.14490165120492013,-9.857664341961627,0.31142328452508805,0.0041406141628318165,-0.5797936120647296,-0.001589767641398915
781,-0.04067519166835668,-10.389313705755177,0.7374086535905182,0.007294622073570228,-0.5769829098354936,0.004178237078126054
782,0.8911756093392947,-10.053163647124082,-0.5142042179477924,0.005628523165367217,-0.5657703225169459,0.0032701384475647276
783,0.5636009475422057,-10.208527542714233,-0.651782320253286,0.0006754834553863915,-0.566685224886532,0.007000947099368945
784,0.6374031659523636,-9.90506937643781,-0.9522511474598594,-0.0003054464533348455,-0.5728348164082323,0.00894922854737501
785,0.706468052782774,-9.662764757824053,-0.9898065466142527,0.0028018031068884593,-0.5796249001979022,0.00887793571772139
786,-0.868485327580387,-10.87372827976154,0.6533691542993963,0.005190090121517317,-0.5840546660334471,0.010428649718098142
787,-0.2111977090124902,-10.563235626353624,0.30715675841628143,0.004383584356390791,-0.591791378293315,0.006202229665988559
788,-0.1679152584654183,-10.520022328426766,-0.32666857403220984,0.006142355228655342,-0.5847237100515189,0.009261719579489807
789,0.11638678079362105,-10.39594773670019,-0.2985639324229525,0.005098605451688287,-0.5753447179135934,0.007068105924064476
790,0.36645627723523055,-9.895067542814546,0.0669204491855899,0.0016751319715066903,-0.5724461552376774,0.0006977240908242486
791,-0.3252522971796194,-8.833959657663303,-0.34118346341022493,0.00024086348493781865,-0.5816268021577757,-0.00013706798766629306
792,0.48913831882706743,-9.119889592579966,-0.3660713934942408,0.005257460345910598,-0.5824885165073729,-0.0009223899766670398
793,0.10906805002545383,-9.608083755971077,0.12295963113132616,0.005706564270362275,-0.5880673291958907,-0.0050773976101195955
794,-0.10874328799802385,-9.715640201867238,0.39247527851596276,0.006211164895982699,-0.5912721766924001,-0.004697748072922873
795,0.20185961181059728,-9.55218244258674,0.2759942797715311,0.006898377336399402,-0.588085791848111,-0.0005798596089023059
796,0.7357946696681359,-9.65101176141833,-0.0421949133461758,0.005092065768724688,-0.5773625534291017,0.001184092579061224
797,0.32076868266472824,-9.625573548004295,-0.8342067362804327,4.882360277529585e-05,-0.5791070940682461,0.006221584334962708
798,-0.6264312877831648,-9.223580736814542,-0.39302809626818597,0.0009627650435011037,-0.584221189101378,0.005328592319971401
799,-0.6591818541182438,-9.449946913696849,0.12330535974407901,0.003479048303410839,-0.5902496808228277,0.0037465733357254487
800,0.10587241431519824,-9.908889171098261,0.1258158300991796,0.004782075087071096,-0.5962834328878159,0.0034239065100493933
801,0.5623751547711997,-9.40301724433638,-0.5696875103302244,0.0033696181654794388,-0.6016115209905857,0.004141755434197204
802,0.16301052576792052,-9.084992723651574,-0.7058046408062315,0.00839529312921311,-0.589534171426079,0.0016139444025255318
803,0.02570211703431059,-8.91833850235201,-0.6268789790689604,0.004183923478628277,-0.5794951972772705,-0.0003476073935680464
804,0.1985467605876818,-9.665796957771182,-0.611209509095306,-0.0002298418833302612,-0.5783851387727055,-0.0021018819031072447
805,0.2758831674757371,-10.584188126263033,-0.4890456647890474,-0.0003005961665031424,-0.5834129121041819,-0.0027949766476743194
806,-0.3238862602728258,-10.102007534482613,0.11889311629621824,0.005290157168655755,-0.5861921819609824,-0.0007744532634582418
807,0.32508126185750263,-9.495002329903361,0.18093747982262703,0.0052409880287158,-0.5931258338120922,0.006888145433489799
808,0.5344274668313139,-9.643002516084303,-0.4121219522565319,0.005225489221752034,-0.5850106140166141,0.00912014929110565
809,0.07380477492624088,-9.951434292361267,-0.5634212980402902,0.0029355118677222244,-0.5799751014963719,0.012687671476844992
810,-0.24248901904218836,-10.067800983037623,-0.38751597346030653,0.00047355895593415454,-0.5818475781876562,0.012880232388023308
811,0.8550334308904769,-9.791443122938402,-0.6322273978591226,0.002263878933844715,-0.5860219902098239,0.00022964712185278207
812,0.6465416025137097,-9.373044333128991,-0.07153091132025674,0.004724547342390568,-0.5886427133671174,0.007058936590307667
813,0.2657969149920055,-9.062135251511037,0.019630227519399253,0.004642149847019626,-0.5939189990188339,-0.0029918419606494934
814,0.22170486211151885,-9.26994272442438,-0.3240967086812763,0.0060921296282520805,-0.5877304856954608,-0.004471056467348821
815,0.48825403573372883,-9.82277721581601,-0.8118869699543024,0.0066804922239820964,-0.57418177482535,0.0008104010598084441
816,0.7376478268198138,-10.168608458687517,-1.0274700900615559,0.0010121142630856294,-0.5679012335935424,-0.0028946863556421625
817,1.0029120779470624,-9.424039886094842,-1.4032286080960674,-0.0015536127693981001,-0.5748411694299655,0.006434790365622532
818,1.4159833573812213,-9.378070727192876,-1.2712887275467777,0.0032143439388022093,-0.5790294122228921,0.013813709305119177
819,1.1165393140582276,-9.564281271755727,-0.39674724189971067,0.004395949060635762,-0.5839048594411455,0.015988082748887106
820,0.3433706021425786,-9.764666849825183,0.5572194833339288,0.002805643900587357,-0.5868492093392328,0.014787318883756919
821,-0.0678535701805137,-9.905382562555612,0.4803829384754234,0.005106109218040574,-0.5821224819267791,0.014922425147521942
822,-0.14616036018116074,-10.285517314301318,-0.06566958363649661,0.0034184899211535573,-0.5692028296349588,0.017403907527475965
823,-0.607795795689052,-10.185524756006005,-0.43926099720929335,0.000436354467024568,-0.5652085227600946,0.013795289569792814
824,-0.11548433399531988,-10.015407781332858,-0.7771537900362405,0.0008300541153562256,-0.568652964714407,0.004519418498191567
825,0.8311403604631602,-9.907592787838665,-0.7358366630941863,0.004478227682836647,-0.5745594729894643,-0.004067945480463996
826,0.7892713591280967,-9.84995221954229,0.18717922797009673,0.008263471630128747,-0.576335393647058,-0.0029506631899450216
827,-0.06818799137917139,-9.817770370784045,0.8129855711044628,0.004890115212095973,-0.5789439208898872,0.0021098660781117755
828,0.08376937328712103,-9.853458663025535,0.29553267662639704,0.006928507477059556,-0.5690752044944163,-0.0016519717663075655
829,0.3758609212907784,-9.401215365566465,-0.282806994859767,0.00429070257023832,-0.5580333000256974,-0.004382467707742263
830,0.3226138821554048,-9.092221904932808,-0.36237453014787774,-0.001209664284687876,-0.5527273194732772,-0.003438957937059924
831,-0.26737640278598873,-10.008664287173335,0.22137176286120064,-0.0017556731481357826,-0.5570079772370539,5.483385794855956e-05
832,0.09332424865447289,-10.090177367562564,-0.44509127954057365,0.0032224230593366505,-0.5604858665594503,0.005219443779529248
833,-0.15428083151717562,-9.422333203478255,0.0917498227185588,0.002874142215053121,-0.566004056168473,0.003503356457560317
834,-0.4069170439276881,-9.739921017093918,0.5685033308198932,0.0035110078810380797,-0.5686986834682376,0.004832257122912457
835,-0.082529279392617,-10.339993162437,0.49874091915569124,0.005730867793082353,-0.5634619881962718,0.009415532025688582
836,1.2172816138638987,-9.489181761538406,-0.17439828813026714,0.00686880693168095,-0.5467649673958728,0.012293362698618675
837,1.222175788238939,-9.360346074381296,-0.9407023567089917,-0.000615183877368485,-0.5389758890763693,0.007083760714170153
838,0.6485420322508976,-9.62541639554464,-0.9816749825441293,-0.0013546427005116358,-0.5423068692786885,0.0006251872139663233
839,0.48435255157723484,-10.366406387696287,-0.6391987294858027,0.0018197926850951316,-0.5468934172061267,-0.0013841809904008473
840,0.6100309011711922,-10.626766329796794,0.01566452799610396,0.005028620566807125,-0.5503473437390214,-0.0006803762581601256
841,0.4360868386227379,-9.221625673691515,0.9012445498974387,0.004348074364263968,-0.5533878712792492,-0.0019805954309114328
842,0.7507822509378218,-9.437396575330805,0.19989105973604135,0.0059851313732500865,-0.5499659678492717,0.0031200462640535555
843,0.46981407601759745,-9.345565954968158,-0.13249567279136448,0.0056123031855630145,-0.5360719567176104,0.00541423400343043
844,0.6944753552483156,-9.42525712981065,-1.011057284726136,0.0015047935143693496,-0.5259586217345839,0.005603298247164126
845,0.9895434949479989,-9.46673025332609,-1.5469619832517618,-0.002318903229982176,-0.5234463122656401,0.003911083315470102
846,0.3846444933552639,-9.057943154907488,-0.275305545563766,0.000258193820695978,-0.5268288022573123,0.0007640772409729976
847,0.9890750286727268,-9.636521156603957,-0.04773051658660754,0.0035988298003614572,-0.5294178018069119,0.0008131390470771909
848,0.6666289976930677,-9.694126081190275,-0.11604405342141627,0.0035532910813926887,-0.5348007513239612,0.0008312000645109342
849,0.4278942479415996,-9.890719592200012,0.004051936680769627,0.004619478840095651,-0.535491427237992,-0.0029671990387916385
850,0.39213036889423636,-9.895289300814971,-0.029095940063837478,0.0058334867021307335,-0.5282658529211814,-0.004997299529490508
851,0.35594445432830557,-9.083065005307347,-0.7743651850763363,0.0038479400475330376,-0.513273178793046,0.0027740109652229328
852,1.3274380677737823,-9.07144634125627,-0.5090552151810143,-0.0019876048644894297,-0.5055020478159412,0.0009800048699586286
853,0.8768870515629474,-9.719867519405867,-0.64128014699598,-0.0024058546497023165,-0.5075654029285027,0.0020459565715661146
854,0.4535183072191783,-10.130992370369182,-0.7221628530565081,0.0007894567230885584,-0.5123606442960794,0.0014045387684586308
855,0.11864532559214674,-10.09151689454447,-0.33446556747783357,0.004769958333844736,-0.5164359874889729,-0.0016139161859451267
856,-0.566203805112138,-9.77271249377575,0.780237251787239,0.00619135669780358,-0.5180881055468761,-0.005115122268491855
857,-0.5025795382365987,-10.139033598384872,1.1238793720085247,0.0036416699525990055,-0.5189811270177335,0.001647237108656852
858,-0.5986625989065899,-10.14115434072352,0.10116836204896379,0.004505784428030795,-0.5043988864227099,0.007012614170009906
859,-0.7441110913277407,-9.821803184395275,-0.9594599334584699,0.001915501474406024,-0.48971305646302044,0.007216131805368636
860,-0.8736824239579419,-9.583810186474787,-1.5250005653920122,-0.0023134770390365383,-0.4825375686488593,0.0026694493665058144
861,-0.8772739664013876,-9.870004932484036,-1.486863962223392,-0.0025981085676161837,-0.48601217954816167,-0.003767725518747405
862,0.08247362854424756,-9.524994806744374,-1.6797870717462269,0.00409415425640985,-0.4903192323210727,-0.005370350832016475
863,0.4011362535201972,-9.813444283079347,-0.482065515243538,0.005274899068465261,-0.49254045858829604,-0.00010191615647066354
864,0.23967177601169748,-10.363880480266982,-0.0035512015809335273,0.0033403734177457687,-0.49477971276470306,0.005224630133618192
865,-0.08652275222212569,-10.524079768851776,-0.07433119873054615,0.0021145794718419146,-0.4935248863309163,0.00809441148350277
866,-0.20544084585796024,-9.692678609956802,0.2503248436945168,0.005100883204096473,-0.48368488816062855,0.008511791564900012
867,-0.15503084979503295,-9.339598058394209,-0.6942606670738701,0.0033909698877415597,-0.4690573532388133,0.014381249343443541
868,0.025091863160108002,-8.996563467583746,-0.5174122632617002,-0.0010324175433633293,-0.46360307146965796,0.016072277675575578
869,0.21485565861599107,-9.062115482585039,-0.216302122786536,-0.0021885634845076303,-0.4640636372793707,0.010122252742296885
870,0.5058160675029473,-9.449084885051375,-0.15513463034120442,0.000618003924256876,-0.4669135010131036,0.0007701306363143475
871,0.939924241673894,-9.81694913465136,-0.33983676318178957,0.005059602373140038,-0.468615113721835,-0.004559549281262441
872,0.09323207479171727,-9.5000502674989,0.3532183518091015,0.001708297982727517,-0.47034440028523783,-0.0028959415027228603
873,-0.5565168683730226,-9.397959356681644,0.7119734366373828,0.00044598530365359574,-0.4706364253269846,-0.005403150196517797
874,-0.04283840517902732,-9.675356983192678,0.3365200580219268,0.003448110028569797,-0.4632183027732276,-0.00635404035567958
875,0.8347015212322161,-9.896825267304456,-0.24028139913554797,0.005478299206500396,-0.4505877187658166,-0.002498938320356186
876,0.7049616428919314,-9.529600197641392,-0.21124203442339595,-0.00018350981584104828,-0.4392715277108451,0.007261855934804382
877,0.2351209028880737,-9.71759167119796,-0.19926824675057042,-0.0027279859114854813,-0.436712251035784,0.01316380722289629
878,-0.2423940586917925,-10.228210620084582,-0.19941154530354827,-0.00038382312337908553,-0.43624333460239983,0.009325128962404783
879,0.04479444870692942,-10.058173238353362,-0.23604709087452025,0.002979561315801636,-0.43821461305344767,0.005875139394173042
880,0.5121160468436902,-9.436664274177422,-0.17422888554945892,0.004682992862884103,-0.44110260029756615,0.006147883019506871
881,0.16542105409539204,-9.14110950602476,0.14496367668927246,0.0027950798950647864,-0.4425122365528011,0.009981192700661301
882,-0.4355835591595426,-10.275237591023782,0.4965093421735331,-0.0013757093808061623,-0.43991841603728504,0.009073609573120998
883,-0.15597486515462897,-10.00458859866277,-0.01947664615544295,0.0014114345601514275,-0.4315880879067484,0.0012048575137405242
884,0.2855059213359479,-9.80309483211149,-0.179946486897409,0.002257353688368759,-0.4245598742364235,-0.006673136689277745
885,0.7339912033152278,-9.938005037207857,-0.3061235600735835,0.0008707265920653364,-0.41881205185078957,-0.008196710430332295
886,1.138685822715499,-10.119021309410813,-0.9635290452490565,-2.0368525273657265e-05,-0.41257297648263164,0.00029831296281275803
887,0.4990172318977468,-9.117072114449671,0.6621320008366136,-0.0008496520664819443,-0.4134299871977471,-0.0005580154777350435
888,0.7095784842175912,-9.25276836737131,0.2946154255425213,0.0011121571016077803,-0.41570680077546374,-0.004193126461681317
889,0.5412833633240528,-9.435186706599975,0.21341096258338924,0.004091333060379673,-0.4137992300377932,-0.002494008013165784
890,0.23145463534423194,-9.494709493613513,0.4470452885687538,0.004639465480625395,-0.4100745137835924,0.0014732559523658144
891,0.38919102221943713,-9.575912102167596,0.2899549227049374,0.00010420485644655714,-0.40815231461194396,0.0017592512438798233
892,-0.05030583665917144,-9.636534999139355,-0.01854490008041694,0.0009101461757785225,-0.39438113925594565,0.005964804545894711
893,-0.44865681471540464,-9.780644603356912,-0.03890226165636528,0.00381571305383565,-0.3834714756629732,0.008086526345033922
894,0.18044223949070437,-9.660017582215513,-0.2824976152021079,0.0022762199244867384,-0.3771545026326237,0.009743610295883814
895,0.9923210529982749,-9.53975697004092,-0.4830111015681501,-0.00023446369780144637,-0.37572279989111657,0.010839491664808071
896,0.6945334695669859,-9.809106308925783,-0.14823377754639,0.0022069697170062925,-0.3780888554411884,0.009948369098737085
897,0.19728535306290307,-9.931705961747458,0.700887554566282,0.0039487216917653166,-0.3780362475571454,-0.001064266660686931
898,0.4174413409913891,-9.391156124629346,0.2644388813524309,0.004194888804024538,-0.3773386345464724,0.0034893129504076663
899,0.38684616581073106,-9.136531913657688,-0.03742701917670234,0.0017170491816208239,-0.3749858071070159,0.008605934547571456
900,-0.005006074772574032,-9.391726332004684,0.17490059428562998,-0.0010576028292461927,-0.3715366943411968,0.008819460145276297
901,-0.4705648124076172,-9.990682349316666,0.7494735323655699,-0.0006603134831291392,-0.3676886248909838,0.003237509239784097
902,0.018363207658897235,-9.747118942828248,0.1695181817546798,0.0035253289908565863,-0.3599255464426081,0.0015630619856931663
903,0.23811570066223678,-9.562094357923907,0.24286192208409843,0.002785655634773349,-0.3543472471388454,0.004810685460345389
904,0.30511027209130814,-9.442245312226543,0.03697548971183584,0.00010865139991737978,-0.34919127346482076,0.008505498505627105
905,0.32403698040258966,-9.285591209615696,-0.1935535034876685,-0.001535274691384923,-0.34401620621941065,0.008130110051339116
906,0.37571775117678824,-9.016601870476569,0.0651104692981177,0.0002579381475455673,-0.33942154048489703,0.0006482093543732232
907,0.3150299889262738,-9.090381159551828,0.11759730890348255,0.0028023336297038908,-0.3411189822132805,-0.005256722098511767
908,0.21366673834012478,-9.434975226103791,0.3559837704310355,0.0025006659768417403,-0.3428448484876139,-0.004782640847919522
909,0.1969423423072429,-9.501399297886877,0.19017896376356666,0.00363176253291104,-0.34152100969438354,-0.004077657174620514
910,-0.15858159722823342,-9.671952886224847,-0.050198789633665544,0.004433176308596938,-0.33660235011057177,-0.004663467007812793
911,-1.1105700320769418,-10.315473836412107,0.13085213493300063,0.0018584855821726074,-0.32946630914179875,-0.005797121371457604
912,-0.23598107125702883,-9.24518412271515,0.05878031405402639,-0.0015159825070111118,-0.32862669062886896,-0.0007477282769405293
913,0.11904683800183574,-9.341220658893786,-0.0020204018354036696,0.0007115512097553805,-0.32417996042664665,0.007928895227018755
914,0.29239242798250875,-9.661901903532573,-0.10406816035946927,0.003040308248155217,-0.31698248860129463,0.011233729665190038
915,0.36541774105884317,-9.794792502691934,-0.2849406658872452,0.0035750010946162866,-0.3095368708400553,0.00949180976692984
916,0.39476957611519625,-9.578952508889008,-0.527104323505298,0.0018460190270499469,-0.3045103959613186,0.006456168983016528
917,0.7887506133060357,-9.539488612542803,-0.45434810795984604,-0.0006653334114078554,-0.30106438569660254,0.007263435617460351
918,0.19935716132006476,-9.475429027625271,-0.7150244199703617,-0.00031469051487707984,-0.29613324106010613,0.0016499752064678742
919,-0.0291223213975776,-9.733084108433175,-0.5228465215215969,0.000554608834342119,-0.2960633480686119,-0.0036153702374454207
920,0.17082960690223903,-9.84657817238422,-0.060430465096287134,0.0011022941045187567,-0.2989158702372064,-0.0037379147126942163
921,0.45575772688649036,-9.305880296238298,0.24875611968891176,0.0012151377106136658,-0.3004278474241948,0.003581861552004188
922,0.4880592777617555,-9.14310629789471,0.5450543670402181,0.002857974934733719,-0.2995872958138461,0.007842162410547308
923,0.4988150405578662,-9.901200755798673,0.2624870947582021,0.0038020723257333683,-0.29217177958830126,0.010634598072712456
924,0.4352279833091398,-9.556089103329182,0.20409063744958164,0.0011452959304379866,-0.2871530009713617,0.010597094580975502
925,0.40957721107373213,-8.736869517214412,0.11407358309481838,-0.0023910342985524607,-0.2833476423371001,0.007072669718133202
926,0.4889886646112737,-8.76746189259649,-0.35698663958133026,-0.0028557453547819124,-0.2776204317349903,0.0005913974418320467
927,0.06270607654527369,-10.011682705807956,0.03781386260621118,-0.0003283578245189474,-0.27501953153003283,-0.0027821898375421936
928,0.2118932022815643,-9.592529193782804,0.10240513962434825,0.0029265644257795384,-0.2716734343400958,-0.00903182876365277
929,0.35194765992754196,-9.682083598992552,0.07989731547456884,0.00374436086046387,-0.26668937375477575,-0.006160446133903205
930,0.40244880426432034,-9.920064869259328,0.10685782028939009,0.0016897070542751277,-0.260690514523721,0.0013471590202784936
931,0.4473972193083009,-9.497368720407316,0.14600450331976111,-0.0020057854306050993,-0.2545847404816184,0.0049266569583010875
932,0.692595355497814,-9.620715846997028,-0.8392322841987297,-0.0011596777317739884,-0.2476800067964923,0.003215874671738083
933,0.34863467029655787,-9.689827987924087,-0.41940474487869017,-0.0010713153626374968,-0.24961806049362453,0.008751859148123086
934,0.06588687777669389,-9.694659324048102,-0.185636267738701,0.00044269604871709776,-0.25150668457245995,0.007903098639873042
935,-0.02622042199905369,-9.650389874101023,-0.14027441223120937,0.0024097642732746178,-0.25202841102431406,0.00019182371091077625
936,0.05153598594770159,-9.535298217582186,0.069720535221405,0.0032213771238230548,-0.25180408180736197,-0.009432971397929897
937,0.29477645238719885,-9.009557975660654,0.16385443829861396,0.003204611088082294,-0.2500920539487477,-0.006892683931769285
938,0.08593498813331718,-9.28955328756859,0.19794146045117372,0.0024696682152519312,-0.2410240410234455,-0.003662043649471333
939,-0.0031048547770593585,-9.676353573126336,0.0336027370455933,0.00010074780839061008,-0.23381714107712187,-0.0008332300993758336
940,0.16555921798792864,-9.721710822984873,-0.124599769014968,-0.0023640968817343878,-0.22895819467150466,0.0010642189543591859
941,0.5028617065687688,-9.182091204593098,-0.06453627506449895,-0.002939479976605588,-0.22456011331426143,0.0017116242800389644
942,0.28898628637951285,-8.6294509279127,-0.14708777062792805,-0.0012638415492454047,-0.21938548832754617,0.0008653198257676454
943,-0.15826108199206101,-9.831878505701981,-0.09948957803471638,-0.0002794408075154516,-0.2193578080551245,-0.0036049305381789945
944,-0.07377316428385362,-10.006425809423694,0.03941613448891734,0.002105060048741553,-0.21653821557385322,-0.008163593154270413
945,0.2931203329840527,-9.590674402390485,0.08777136857850458,0.0030582423009114486,-0.21229035810877656,-0.008165336452642866
946,0.4882714581152302,-9.626365499049607,-0.08419683082727046,-6.080231727649722e-05,-0.20945916789749677,-0.0007571906450295932
947,0.5690253353033933,-9.416861433717512,-0.06127770388853323,-0.0009349312486070582,-0.20431572943496057,0.005155884113054325
948,0.4716399888989753,-9.572132367154719,-0.45660922716404034,0.0010866541979305568,-0.19545262803612104,0.00671963593710879
