# sampling frequency: 40
# units are seconds/meters/radians/a.u.
seg1_acc_x,seg1_acc_y,seg1_acc_z,seg1_gyr_x,seg1_gyr_y,seg1_gyr_z,seg1_mag_x,seg1_mag_y,seg1_mag_z,seg2_acc_x,seg2_acc_y,seg2_acc_z,seg2_gyr_x,seg2_gyr_y,seg2_gyr_z,seg2_mag_x,seg2_mag_y,seg2_mag_z,seg3_acc_x,seg3_acc_y,seg3_acc_z,seg3_gyr_x,seg3_gyr_y,seg3_gyr_z,seg3_mag_x,seg3_mag_y,seg3_mag_z,seg4_acc_x,seg4_acc_y,seg4_acc_z,seg4_gyr_x,seg4_gyr_y,seg4_gyr_z,seg4_mag_x,seg4_mag_y,seg4_mag_z,seg5_acc_x,seg5_acc_y,seg5_acc_z,seg5_gyr_x,seg5_gyr_y,seg5_gyr_z,seg5_mag_x,seg5_mag_y,seg5_mag_z
0.4638296475598759,0.09796803016795382,9.751060613004796,-0.0045117111154888,0.0010036459867597087,0.010819683477054028,-0.3966977148944883,0.11467317844571341,-0.5600201978149081,-0.09578947894360536,2.2436058522874447,9.547345432795561,-0.00876470133564537,-0.004285231021291782,-0.011798603120331442,-0.9668717426436657,0.2956428903181039,-0.07880835825950544,-0.26927754972068985,1.9021313887743567,9.537331897123522,-0.005172127040411085,0.0012284659184936461,0.0027059488843930554,0.31021783127244124,0.5498780693659234,1.0419097039340923,0.09474481392979026,1.9244023319529822,9.715073246799395,-0.004804369721334231,0.0037303737784645315,0.005205604388893868,0.42930360481911417,0.07423174721280876,-0.5552581844764176,-0.5812153661285179,1.9349597968935544,9.601553587249292,-0.005862983255654159,0.0035801906748235347,-0.007461491477970444,0.31876703437825415,-0.09106772354062284,-0.673262607944197
0.45841680869865264,0.11200987181390142,9.757476386430701,-0.0009038220625446024,0.0021171581690906803,0.009909503164453312,-0.4066377951029341,0.11430395723561715,-0.5667247626141833,-0.10022479009185958,2.2190230722329063,9.570781734483504,-0.00964535716003006,-0.005044224844281853,-0.010268353566944728,-0.9763585736432595,0.29528120513616957,-0.08302842927956133,-0.27793920672735817,1.9265902310769951,9.525902959285144,-0.004761306833710704,0.004380858523221055,0.002901998937763621,0.3151000634936806,0.5469382230999724,1.0409587935963283,0.10291136657794696,1.8951394987629995,9.699034609808049,-0.002101791138300168,0.0025057470719382457,0.006964033071606984,0.4322134318841526,0.07689207135400938,-0.5515623134132832,-0.5884341358602427,1.956882939900733,9.635357773177178,-0.007178764973285497,0.004689103961029794,-0.004687850946967488,0.32044063703139514,-0.09133832457656615,-0.6712826445004068
0.46154724383326506,0.10449042274373159,9.745941085847315,-0.004945061893647158,0.0013038142100742058,0.01178796243519665,-0.3961593308185753,0.11643296313074601,-0.5641426516289766,-0.09341120535724766,2.2347417378038608,9.557069077748475,-0.009883947784551865,-0.002954441866015607,-0.011569896734741692,-0.9685509728996441,0.2967973404329831,-0.0839605501891275,-0.27342403615826977,1.9204280912126166,9.544239678757934,-0.005569628075245615,0.004051880040514183,0.003952343132967909,0.3096878096151069,0.5449843559140138,1.046041892058241,0.09634881422380974,1.8963443020720399,9.727795775528266,-0.004219989262604969,0.00465818470665805,0.0068771427106143306,0.4273325105918462,0.07325386866966536,-0.5533243967160647,-0.5718168749968122,1.89808949250349,9.610655012227353,-0.00657256889475786,0.0028362988664606664,-0.004776646194117311,0.315537565315436,-0.09109341851317408,-0.6701461878279922
0.4613568804473416,0.10359175065593303,9.74595964008973,-0.0014375682091689204,0.0004793528079930821,0.009159880159120861,-0.39718333878863243,0.12002684091727153,-0.5584922980884646,-0.08522132728601961,2.2375404138266157,9.547624908769782,-0.00884289309509235,-0.0031783132449166667,-0.01146862117370503,-0.9695588804984865,0.2987652325983371,-0.0817914220929253,-0.2731471345480062,1.924440619172299,9.513974375886974,-0.0032930448075803587,0.0024841830610613973,0.004573969874671636,0.3179978658736693,0.5532587568034573,1.0478338568738292,0.11326353154106775,1.9135243315500927,9.693763939929662,-0.0038072505568698648,0.003416568565210916,0.005318872477924878,0.43464228788472764,0.07687650503908941,-0.5498347540891758,-0.5770568517058282,1.9523744913851224,9.602093463681086,-0.007904302982479336,0.005028068210354442,-0.006935392233550411,0.3242846350714667,-0.08553977226678336,-0.6667557887286112
0.4705710128334441,0.11326809262290406,9.759434395431091,-0.0031961423083663827,0.0034318205011763608,0.011102680369729466,-0.4023015340209436,0.11324658638268147,-0.5615638043980982,-0.10272092654614731,2.2382038138765608,9.563814719426757,-0.009643341854354075,-0.00463423980573959,-0.009505515309701078,-0.972450616086732,0.29289381981839624,-0.08077570202557349,-0.27370159728736076,1.9233104208230023,9.514187175703503,-0.006427470110257486,0.0036714514855702503,0.002799122357248896,0.3184945089331076,0.5586263241278447,1.0485859477524344,0.09688573172637646,1.9064428818891885,9.707727733788422,-0.005374211854351928,0.002794440816542651,0.0060822402507122045,0.4375646526629266,0.08612245561141499,-0.5448892873652704,-0.5869094038770111,1.9113827621852624,9.616976999111872,-0.007176773553966812,0.004686098258882904,-0.004687849023078408,0.3255073010439069,-0.08018082257611366,-0.6659418371743355
0.474117580204126,0.11499365216780089,9.72599981943345,-0.005586021787163425,0.0002692855286161736,0.009948687898281534,-0.39152508514123613,0.11276430558438917,-0.5648724274915693,-0.09251419337102121,2.227839984482201,9.558689443319427,-0.010278712606052828,-0.0040794358016596755,-0.011361259776200349,-0.9626508545862514,0.29364689038940844,-0.08608107592839817,-0.27522529307092625,1.9168067412252756,9.544915433006013,-0.005953888213821149,0.0030217422084011037,0.0026215947748057526,0.31242405564210307,0.5474377376998552,1.039721221722537,0.11100997803062931,1.9173193565535247,9.730238520363148,-0.0029642595611777426,0.005010289037445423,0.004975186229199926,0.43153319587156,0.07789793042249447,-0.5579104104117166,-0.5723608123172281,1.9209036172934137,9.617761008446125,-0.00780051519730027,0.0035981352660447515,-0.007786543730303747,0.3190423503077831,-0.08593098436558458,-0.674178198347475
0.45323880752359086,0.11391267998109383,9.769173428403352,-0.003069193144690757,0.0017379789759045328,0.010180431597918482,-0.40205714300810325,0.10327786098168594,-0.5648620887873509,-0.08576790028711406,2.234771377914174,9.540649795575714,-0.00987897236242006,-0.0029444758370107665,-0.011576962386904447,-0.9703902296473793,0.2840668742775625,-0.08579608827960683,-0.2723050150061744,1.9180798676558222,9.52376321441986,-0.005098033868585336,0.0034041788453975353,0.0037738072371684187,0.31773113862764846,0.5461780312826642,1.0483004709278592,0.09452290244548757,1.9132669969734173,9.704006016965963,-0.004825950394187797,0.00410599623427745,0.007151137232422411,0.4373375799019282,0.07662984064423631,-0.551280279467136,-0.5761017990928143,1.9403881498809243,9.582714687201364,-0.00796353019194358,0.005615721013740184,-0.0047234653992423775,0.32678345016671134,-0.08819234039597205,-0.6704038031803083
0.4531321911279117,0.12304207317997434,9.747303065677407,0.00011033469779606392,0.0031486421018840144,0.010238545656913664,-0.39937075999709054,0.11226658676608572,-0.5620327664142359,-0.09233144920333002,2.240568743408473,9.568521007120065,-0.009238634248024078,-0.0038973143388362982,-0.010494127270789962,-0.9709782405261933,0.2928952210240067,-0.08174154996668592,-0.26436728424466965,1.9029294835630377,9.528151770127488,-0.004625459037165006,0.0027544692724421585,0.0035972725393943316,0.312680070133966,0.5476853417545665,1.0382587119577673,0.09280970637314565,1.918147215301351,9.740257406253678,-0.0038092395281569455,0.003417579572394583,0.005317861608153968,0.43154893684552287,0.07815036859022095,-0.5598632747677879,-0.5715891429128722,1.9118730401029,9.625587546629548,-0.005046195769243508,0.004237697410711064,-0.007615851752346658,0.3195699717191498,-0.08712637535465473,-0.6766236271502656
0.47101482467476374,0.11091077985534747,9.7428189683657,-0.007089665988510016,-0.0001629082256203202,0.01004503972522705,-0.39698388132985674,0.11535432631452684,-0.5558640612252278,-0.0839204529306357,2.2343697295278306,9.554784229127815,-0.01187788261793268,-0.002781662751169605,-0.010582832269925109,-0.9686027801229166,0.2939685801008437,-0.07416588041445253,-0.2735634676480439,1.9338335962750213,9.539764384144002,-0.006429450706530365,0.003673462463881344,0.002797114073246029,0.30974921281538226,0.5540328432902151,1.0406973775012651,0.09565420659599112,1.9119681661996801,9.728180981920234,-0.002536012124518101,0.003758534580414189,0.005968089000017336,0.42835182052778376,0.08350971563235825,-0.5544923446311373,-0.5794445046308556,1.9544643236618418,9.59649621895133,-0.007437042470517886,0.0014138423653005854,-0.005790831551495387,0.3171064690195972,-0.079822623705438,-0.6741448564275361
0.47081377849127803,0.10955102704367688,9.742843559487262,-0.003122305107141662,0.002038115691697659,0.009635592106620789,-0.39578599494529754,0.11191994905489332,-0.5549176078200357,-0.09331875208250143,2.2310853879969947,9.556707569129186,-0.008747783520700991,-0.004661338606932303,-0.012587649298676642,-0.9688260234398617,0.2922477138273577,-0.0751258672321838,-0.2776992934517911,1.9117253229720172,9.545863194395253,-0.005100021558361393,0.0034061869274500337,0.0037727989238120706,0.31094529924915143,0.5510936176383545,1.0431394208691025,0.10019821858356615,1.9178565535452727,9.69564889083274,-0.005136185342791796,0.0038349694804149857,0.006012551805080463,0.42883683487839463,0.07643879047305369,-0.5572052912710873,-0.5799904412201521,1.9018278289467734,9.598348457151724,-0.007859745160719616,0.004184788134811396,-0.005574627994340641,0.31854541717556406,-0.08764112917850524,-0.6739618117006055
0.46162458570953363,0.10077472730302331,9.769609057425507,-0.0014152791234638578,0.0012627440184526779,0.011722412189756396,-0.3966636052555631,0.1108232565867841,-0.5644632834783487,-0.09152294339222333,2.2247864702707703,9.565807183441132,-0.0078008306674725355,-0.002581217507481113,-0.009839702336783008,-0.9682653876003908,0.2926359788116712,-0.08513642794362533,-0.25670069177838806,1.9200307982013558,9.510666169691781,-0.004291704830456451,0.003736162506322896,0.002723457613876849,0.31363573182915094,0.5418207280241714,1.0389805266968914,0.10548318921155699,1.9120308273923692,9.707408560099035,-0.0027780012957261697,0.0027200365714565365,0.006033755783165465,0.4297916876293271,0.07033155368986112,-0.556980371067334,-0.5709093031592911,1.9514352016550585,9.61842907470948,-0.0066417576926255896,0.004503790228807843,-0.007497033568508534,0.32049622760106616,-0.0930094505028429,-0.6747188710393721
0.45546804771933885,0.11272919563022876,9.73583578912069,-0.002870200584964319,0.0011926906499501104,0.00841741157456329,-0.4016243999322901,0.11561147041044859,-0.5556657029271842,-0.10261492561573293,2.2347721595518117,9.563411987011644,-0.010749653892669428,-0.004098506511553719,-0.010823615272290896,-0.9742005986871289,0.2934188478605424,-0.07591209683464065,-0.26747001475347476,1.9046948922264006,9.552034575022246,-0.004627446726941063,0.002756477354494657,0.003596264226037984,0.3166034359629472,0.5430482418212801,1.0341219906980377,0.08826242444881338,1.913964459921572,9.717195699171729,-0.004776183683528088,0.0033506862784789425,0.005801202365407795,0.4356964639168699,0.07350591490848274,-0.56156071230438,-0.5740169056201009,1.9373406472473071,9.584387160192335,-0.007498269361166115,0.002001501066975923,-0.003578939936111214,0.3239829907467595,-0.09127018434641725,-0.6783009214302721
0.46648272364583165,0.11379897352809591,9.75447845495698,-0.005362691132029043,0.0005124190205472794,0.010745285364746646,-0.4006141676560762,0.11151315523663376,-0.5601024357886686,-0.09255114254075109,2.2330474953662747,9.562665632091495,-0.010189515068527851,-0.0043554121912211035,-0.01017362606511594,-0.9726867977742385,0.2904652505761584,-0.0792882660954765,-0.25780304988806235,1.9179134659118846,9.511064229453625,-0.004627439633437884,0.002756480250753252,0.0035952642553914653,0.3045989001092994,0.5496472594924628,1.042357190678239,0.09125625729549451,1.9076428022962493,9.705144800833665,-0.0027789936195624157,0.002720044242658634,0.006032748194679686,0.42321950131324715,0.07962417514712809,-0.555525389459659,-0.5757047031271058,1.9189130014460438,9.598991959807481,-0.007895364484829774,0.005019020160319189,-0.006933334066810732,0.313922085806628,-0.08688740875997984,-0.6747672194133264
0.4579376733522069,0.11425197269790503,9.75933993088838,-0.002360427302587944,0.0013757987842758206,0.010554515131183552,-0.40451990790464304,0.11493217088534377,-0.5591239537476472,-0.09379947649097062,2.2349929672792275,9.55459130893815,-0.009310882028777048,-0.0031854234595060753,-0.010937078322377733,-0.9739833210128928,0.2978042995439646,-0.07693187717601226,-0.2707432533493194,1.9165703063816435,9.53595027843408,-0.005293646748230207,0.0028916233564436323,0.003106915587752813,0.31119417106411057,0.5442662276334076,1.0399473186558157,0.10825248332888493,1.9220869813803063,9.711276315916383,-0.004087336738618505,0.002763830358305029,0.004779891435550701,0.4317477616528581,0.07520055299344908,-0.5552353211551173,-0.5825734000780429,1.9569075539147125,9.61862080842124,-0.008141090112306102,0.004686541266959447,-0.004848890567583265,0.3214857894514433,-0.08959185660854456,-0.6749076971973399
0.46108939279299055,0.10678855928018414,9.747796569041725,-0.0030742244609012204,0.001734971404393322,0.01018233957349361,-0.40080223330223397,0.1237385415111884,-0.5614145564960223,-0.08925262832160964,2.2286118427559036,9.58536157782782,-0.008917132413049646,-0.001649437103764048,-0.010379910344933903,-0.9708159422553422,0.3038771638792422,-0.08234193850390217,-0.2716352500726491,1.9036781152819877,9.543633837472411,-0.005485281668449753,0.0023760516958093196,0.002442043479672451,0.3177287770628393,0.5352017235089707,1.044605555491727,0.086163931655752,1.9200380271503048,9.71362576554272,-0.0037449487689458364,0.00265214329248775,0.006517092194689538,0.4358355367363852,0.06321116704784754,-0.5523257698986678,-0.5825810073061736,1.9039624341172707,9.606608129670656,-0.006439737968605872,0.00299150954088248,-0.005818813930905938,0.3262144713394072,-0.1016439998063886,-0.6681199607601243
0.46081965567743055,0.10580008331416235,9.747820130728565,-0.004093412537452349,0.0007004799000887778,0.009855205056608389,-0.3954960349456728,0.1105130642609444,-0.5595719788167627,-0.09696509610781269,2.239196983895634,9.538370309131404,-0.009307882753412423,-0.0031814416049918575,-0.010941096926851275,-0.965584404610981,0.2873496457771411,-0.07895776633624371,-0.2602096666320137,1.9091338222962517,9.542212644306234,-0.005317908126090652,0.0028668955643842073,0.0020056395452257,0.31434410322621226,0.5527845290493765,1.0463415216054306,0.09907748466344116,1.9217039693315192,9.716441749805185,-0.003141965614637814,0.0032063504283072622,0.006241083560354521,0.4322132554878983,0.07908481760839017,-0.5505758034879488,-0.5755937788468843,1.9751023164214883,9.591428061910607,-0.007913422031755645,0.0034228558682649246,-0.006743245987831731,0.3214241402693534,-0.08231957645374606,-0.6701894177727539
0.45896517286109056,0.11281925552407604,9.742686507839075,-0.004221386528669216,0.0023932996490034866,0.010779430113213306,-0.39376853506864296,0.11758025282937173,-0.5589746582050709,-0.09202653546792804,2.2239189868999025,9.564798225254409,-0.010261771045326074,-0.004050532265270243,-0.01138343113394692,-0.9663955209735361,0.2997685935348197,-0.08153361529114116,-0.26570872472551543,1.9244328808726614,9.516907203947293,-0.005936577623552105,0.0030544997281981576,0.003718844649884936,0.3160527337696338,0.5459512063948636,1.0438927788330243,0.10360936403758288,1.8979432968588557,9.71259457915846,-0.0028813627885393473,0.0038722489502177266,0.00422687420540977,0.4344287311467207,0.07202076228134868,-0.5559606001360741,-0.5863500050599045,1.9010671103478254,9.634766753610801,-0.00694876864178405,0.0047569370236449585,-0.0031977213005567728,0.324605594231565,-0.09036652909652755,-0.671931574439406
0.46822179339562076,0.12212417082755005,9.75618101136736,-0.0030251472497122584,0.0014308236958024355,0.010729085034106524,-0.39935543465036993,0.11836286765090172,-0.5614671892690339,-0.084022255161617,2.2441900366981256,9.564135659894648,-0.00882795876926237,-0.0027404146311516874,-0.010723974431971265,-0.969802035544173,0.29900224082803367,-0.08228377128081259,-0.2552979022262647,1.9246153123904413,9.545971434654993,-0.006435411195985327,0.003680486702463426,0.002794092047799533,0.3150973844919762,0.5479130927412429,1.0416946196664558,0.10613772110793049,1.9186889259586517,9.711971502294404,-0.0038669315581125263,0.004176950838022455,0.006659753150201361,0.43367489410278615,0.0763971154061039,-0.5513092742994296,-0.586153789365442,1.9322749373901473,9.606534885009914,-0.007647158254270488,0.001322918679309925,-0.007277864920570843,0.3214388253509356,-0.08791532817110173,-0.6719603647132606
0.45976808106553,0.10304837521828114,9.747899920393735,-0.0009899662137574758,0.0009575789205697105,0.01075598361408659,-0.39294596191410786,0.11573945445748904,-0.5680244108955875,-0.0865856513882213,2.224634158235943,9.53420785911748,-0.007706697151290573,-0.003660229174514503,-0.01019085287933854,-0.9636382867957061,0.2958284693721187,-0.08684324374058144,-0.2820341358064829,1.905669148635579,9.517493072168397,-0.005961838972925378,0.0030297745366110974,0.0026175615213803608,0.31364611960510497,0.5471902710661704,1.0394851667807439,0.09982111419511072,1.9227664861657008,9.700571411116403,-0.002473721295905711,0.0029931050023642037,0.007167304332523139,0.43227879719711976,0.07863479578777617,-0.5593665855717752,-0.5741045977516568,1.9299254232383827,9.586818215927511,-0.007576059825051104,0.005012564642814929,-0.0029169023344720155,0.3207921210120612,-0.08664200816633275,-0.6765967100049247
0.4710099192394582,0.11400361139538472,9.744662404559783,-0.0047068674810059165,0.002994575622714418,0.011204892741837984,-0.39716156474668557,0.11251524893383547,-0.5629829729559512,-0.08689503828906159,2.2485661100871717,9.547892115521686,-0.010909060148144375,-0.0018846634929224977,-0.010160674298618838,-0.9695208491492985,0.2933997325536607,-0.0812475950183364,-0.26779562383327776,1.9087742402026842,9.525109289808983,-0.003660011768882865,0.001482799882788432,0.004341459703744988,0.314097901245319,0.5505885935895879,1.0458454006110682,0.09746659796984894,1.9096573577553795,9.72122257981618,-0.004538153854119434,0.004392214927404422,0.005731518265505808,0.4336692929103242,0.07639394864550085,-0.5505763025412627,-0.5891509789402118,1.9118264732702421,9.621436323691793,-0.008573327509446681,0.004514706534746492,-0.007821058069141419,0.3218658337675995,-0.08698129218397307,-0.6682797150984716
0.45751370028082106,0.10933547076731859,9.742794711893115,-0.002901183764023405,-0.00026199470693805284,0.00980581697467903,-0.4003553342557189,0.11979709138336471,-0.55877338154307,-0.09641988443149649,2.245369585326667,9.549795579053887,-0.008734832979896065,-0.004229413825354337,-0.011838955591910193,-0.9720398967978044,0.29879907891065505,-0.07668330056445108,-0.25916318779703407,1.916806592638329,9.514623479996207,-0.006575233725966692,0.005313889198362482,0.002097810533970289,0.3116651593000737,0.5537689172982686,1.045837354752049,0.10440111617773762,1.9159301962503446,9.71253533534854,-0.004419152360076071,0.002868426060255483,0.005586838851737295,0.43074265777667775,0.07932950313346433,-0.5496099466840838,-0.5815129145029938,1.982495498582458,9.592563568678214,-0.006616269391514768,0.002066337631513432,-0.005945176879748514,0.3197061142634309,-0.08256392292351289,-0.6697333262844685
0.46580124994847916,0.10686069915860344,9.737969823294318,-0.0038690994486658067,0.0009415973719114985,0.010652787656080605,-0.39103590529662213,0.11932924808959972,-0.5628306023318401,-0.10538429521523308,2.2250478842309924,9.542845705322767,-0.008174686244275241,-0.004488308994067522,-0.011187945664036348,-0.9632384907538997,0.2998162431454163,-0.07931281032291179,-0.26979023247801065,1.8944171541145938,9.533042792088148,-0.006414134899540557,0.003708225169472302,0.003894355605615383,0.31505833791263876,0.5461899632569049,1.0465724952434714,0.10807239751475979,1.9006621542416788,9.704627122493157,-0.004230892559175647,0.004664264679926325,0.00686708527312017,0.4336745753615861,0.0751792419348195,-0.5518025572875265,-0.5711021471860506,1.8969545098138623,9.616506349121668,-0.006859530978882258,0.005755402728304832,-0.00559863610040659,0.32381487235370254,-0.08674577459632607,-0.6679976689040454
0.46401337912709917,0.11404967586383681,9.732835071025935,-0.003080266473356564,0.0017319546553468275,0.010185236694595659,-0.3903115272037585,0.1178586992654049,-0.562596430313361,-0.09576747838757935,2.250122533422814,9.555128846696636,-0.00769675409324017,-0.00405027678999747,-0.010968807243843722,-0.9632048282497756,0.2990464313557154,-0.08296689360661696,-0.2664928658656137,1.9255958047701598,9.520032101494579,-0.003991471798956986,0.002599630725628589,0.0029803031672128357,0.312360291632251,0.5461919984197398,1.0482624121429072,0.1071759916418328,1.9267439370599704,9.716266401531415,-0.002870815676796043,0.0038621489906441177,0.006773009266487734,0.4314501560569648,0.07419590597900244,-0.5486496819085707,-0.588970345837085,1.9512698819908008,9.61437875511721,-0.007906457312383534,0.003416824568456657,-0.006742189528324455,0.3176876354496989,-0.08771718786243592,-0.6668962533654581
0.44837260884831337,0.10793273284583087,9.747702240063807,-0.004454762958828573,0.0021491505809668704,0.009986712209780486,-0.39791756557994334,0.1056824123380578,-0.5630777980344636,-0.0951619880736076,2.2306930802601976,9.546810729344651,-0.008734817145592934,-0.003822413214278584,-0.011073101492010455,-0.969445327690512,0.2865340163941092,-0.0841052470485417,-0.2705119746166124,1.903593411473659,9.526069044518474,-0.006606760117896543,0.0031936589979935353,0.0032284793555335876,0.31313058940301564,0.5532778179901521,1.0456023205354779,0.10333396966848614,1.9042211219867302,9.717238775601901,-0.00478212435515147,0.003354732245904111,0.005795174217412131,0.4334427337898372,0.07884200482597314,-0.5517885042168,-0.5899056345982937,1.9323192367485755,9.615188062745032,-0.008438518832541013,0.0035891133568262483,-0.003932063354614483,0.32020985086590736,-0.08499371568936182,-0.670972552878096
0.4632014204155673,0.11198843173509843,9.732898195446795,-0.002981083851958209,0.0011256809279055553,0.011276764053403958,-0.39477768826373943,0.11268253151781758,-0.5575834537689167,-0.10436103392828402,2.227695631293895,9.548668618754162,-0.009128535377280088,-0.004953398790294267,-0.01086439456619913,-0.9636960341035492,0.295423838463043,-0.07878183368551928,-0.2711780342564931,1.920269021380024,9.541932082336208,-0.005942545852626696,0.0030585239895064807,0.003715813880570796,0.3182174493961819,0.5498337822045726,1.0500235591535092,0.08528008836307066,1.9149515611689154,9.722904394258977,-0.00311480477860283,0.002823657683543313,0.006838660795606096,0.4377825935145118,0.07684688158947477,-0.5454157152793463,-0.5705408906836915,1.9024008230798495,9.610424103816905,-0.005783462075399797,0.004318992526965535,-0.006287671983685865,0.3271627496250289,-0.08704299262115273,-0.6640350340203027
0.4706470296730818,0.1000510471702564,9.749974240467102,-0.002241356350430649,0.0022181607222881016,0.010264441909840131,-0.40352540412814947,0.11470644421271883,-0.5608253519102788,-0.08492222739959207,2.2359294215290695,9.550876123477424,-0.008819015367248408,-0.002721469657886104,-0.01073610305713585,-0.9717168881915772,0.2936214025529337,-0.08175470342509986,-0.24196352999249388,1.9208427641217127,9.534003744498103,-0.005491237644274748,0.0023820788382254102,0.0024380185689568887,0.3111401695473524,0.5427807332205351,1.0470228409111344,0.1015500777649961,1.9110442709468125,9.713527478935616,-0.005145096350226868,0.0038410384315527386,0.0060035095830869665,0.4292447423563113,0.06883762330246204,-0.5499107323307414,-0.572529324528072,1.9683089467512778,9.608861845528965,-0.007846846973384114,0.004167717763164072,-0.005571588393169331,0.3176916754130295,-0.0940512941667567,-0.6681864413379102
0.46371380940117085,0.12230491416677645,9.751266119084603,-0.0028539535117145997,0.001973065111363211,0.010982840726300878,-0.3988515672667596,0.11424557214746225,-0.5641993754627422,-0.1010656007188497,2.2234573257415455,9.571302494803286,-0.008900238059321629,-0.002021555369009361,-0.01116999804733341,-0.9699930721843536,0.29361462596731497,-0.08369462673573022,-0.2727333774406822,1.9059828307904971,9.549855905593898,-0.005606805889898845,0.004040206229925298,0.0028440130683012755,0.3192497876195017,0.5461961433719554,1.0407420740613427,0.09558256118103844,1.9029797717132308,9.746474306945787,-0.0045421165137673695,0.004394245582319104,0.005727496603022195,0.4353994257869451,0.07323320279121513,-0.5547278970390251,-0.5846301509046974,1.8984217087071087,9.603455083137252,-0.007560513834658067,0.00366195014681564,-0.0062972821659967645,0.32733221194817463,-0.09107943427712396,-0.6743328705542051
0.7019361242337911,0.1809883242845568,9.830929794418699,0.0035488911980432725,0.011982594332363865,0.007033162967716046,-0.39362190148139625,0.1181936506851087,-0.5496870142270931,-0.03202151113210012,2.2230532260231284,9.570930019898796,-0.007773009001439462,-0.0033403861298122767,-0.011408767968860567,-0.9664944268330649,0.3003863243219895,-0.06908873086799229,-0.20863605781610534,1.8857912137455763,9.536166698164099,-0.0016843866173739,0.003148160784801581,0.002473242284178645,0.31582165354621355,0.5522973794547746,1.0443975346393364,0.15609397959801088,1.8693840998061835,9.685127196571457,0.005075221820399078,0.00581348816859341,0.004777082036910139,0.433486281405466,0.08130301009027466,-0.5564167175539586,-0.5023272893101823,1.8217190712596092,9.464782530096098,0.0039721132235770356,0.010100342213004229,-0.010147536928697984,0.323391953733013,-0.08499768481186366,-0.6714045547174727
0.34637096355346597,0.20348838769055266,10.112140308792009,-0.08542574400084044,0.06684114614824968,0.009405045108408717,-0.3949617361848975,0.11494212746000716,-0.5624394419835604,-0.12844724974830463,2.26564306873152,9.545063880152135,-0.007329663382159284,-0.006186714757317828,-0.019343599851522446,-0.9695433549386423,0.2943958487711212,-0.07930490848398296,-0.30674116575682436,1.9025200614638118,9.579183503031032,0.017617240805272636,-0.0022680206009655715,0.00259147524831562,0.3163010402424796,0.558633453636085,1.0480813942138012,0.04998320130001911,1.9281239380608712,9.68538013689558,0.02110782964779445,0.01635342778698944,0.0036320859262152978,0.43517175023757826,0.08713293310807668,-0.5507624333886129,-0.6061135237756972,1.9965165502088298,9.405563979307804,0.01931368431182779,0.027559810091533975,-0.01614630171344632,0.3238171526995661,-0.07967702041928235,-0.6669433040788783
0.5451963092756921,0.4032839131454694,9.860571320777524,-0.24733176488413722,0.08198174899122057,-0.015152366568901086,-0.39393251622270836,0.12375482506677923,-0.5645148619798565,0.015205202081423938,2.276536948146464,9.591314289713567,-0.0031612411872198294,0.0012188061254602808,-0.012374774494299502,-0.9692903510273194,0.2965602297274784,-0.0827436448938599,-0.21090783685864106,1.9650198743648943,9.47262518481691,0.0031343833831819147,-0.0011952770526813272,0.0017778241123819123,0.3060792859628271,0.5462353751050902,1.0389397097855522,0.10084633025815361,1.9744401322018312,9.766780040518897,0.0035299769229765548,0.012997989553234592,0.004025284151119945,0.4246677619264746,0.07571121612584852,-0.5550432091054752,-0.6118886604337892,2.0362431660049576,9.971133537136872,-0.003171369020769283,0.0166013000725852,-0.0067109877390804035,0.3151029275162457,-0.09203385989523272,-0.6733379368767782
0.30278099665781305,0.36045637984218193,10.186777823112369,-0.5425947595401449,0.13108308551109,-0.02266751019553006,-0.3902997414725848,0.13221809281100924,-0.5589956501063785,-0.2079445888286831,2.174873808866924,9.561933816630166,-0.025223216143644117,-0.007515243260179311,-0.013796076837686154,-0.9664027835534388,0.29832996255016264,-0.0790775889995641,-0.3093169711904479,1.978020289111644,9.516393056612062,-0.018735992132712924,0.0048683962564712935,0.004109316937508663,0.3108820141694518,0.5493605916383969,1.0514341961452724,0.016254565847150543,1.9748570725924672,9.719084599305463,-0.01809650002835476,-0.0046963041243951766,0.006966695364011902,0.4284892785608339,0.07272597940100867,-0.5452605272487456,-0.6709797612618195,1.9752171912390903,9.734766678275887,-0.02201051231149155,-0.009716080157573866,-0.004409587753665674,0.3183736745065547,-0.09067344169957774,-0.6647183399918704
-0.033885068898930074,-0.255570160075688,8.327867598584202,-0.7031585624133159,0.024483032193366686,-0.04584262220311412,-0.3874085883683633,0.14091553890341224,-0.5525063130679982,-0.2730437565416664,2.172404762852825,9.45246105938501,0.007067639061686609,0.006033508692266587,0.0005816321466916866,-0.9656770895351322,0.2968960987370911,-0.07661501295863499,-0.3108219990262479,1.8904516514975993,9.578101570632686,-0.011597847411874028,0.007054280389953048,0.004355289495637549,0.31436504114247493,0.5508421499431353,1.0426739368400433,0.08404965054492243,1.873157449154673,9.727407603416527,-0.00941196989381669,0.00035841380834297906,0.007321909331579936,0.4290665607660807,0.08081602881519288,-0.5532784736648526,-0.5639836152632233,1.877582101476766,9.363544093556762,-0.013501213147050713,-0.0015725994979901557,0.00042154166677345345,0.32147300568067033,-0.08643254271986077,-0.6736527464700305
0.824084530912133,-0.8684687124378585,10.936644249162669,-0.43518173984316033,0.0024782974943368596,0.033572607325161256,-0.3907921115044237,0.15263932336233113,-0.551905914743087,0.09122897798306397,2.489724624918235,9.701068199116884,-0.020567728552328364,-0.026551916856768564,-0.030164986962188233,-0.9683991233023383,0.3024794258445503,-0.07767063627274891,-0.22082666548600255,1.8935190518402047,9.500371555155276,0.0005413661724535351,-0.000575512898629043,0.0031262651152508814,0.3096868651286433,0.5486420851540064,1.0475175224031612,0.1183675967702746,1.902477754032453,9.739665986782528,0.00012149190803688732,0.007002806245890471,0.0073394651984186815,0.4258368735848651,0.0786022724029673,-0.5469644739611134,-0.6033239160456074,1.7523066999095864,9.870065778322116,-0.009255892938923373,0.0064267518031861075,-0.010257502676745085,0.3150127463485708,-0.08575370136601222,-0.6671658068388695
0.5383747551106479,-0.8833742627303572,9.666718278158475,-0.1884591616448393,0.16389992799125877,0.060574737239087635,-0.3935758215439353,0.148156011345126,-0.5441786706177661,-0.06147643828285081,2.0337964392203753,9.446352089539356,0.0037195104185343184,0.007237053459351143,-0.02859880110202014,-0.9740182212898439,0.29398700390291027,-0.06834695452292698,-0.2250794278766448,1.9750649017344344,9.431319539123328,-0.042769374767399296,0.01716925192292911,-0.0012976961943163502,0.3122055708654297,0.5506184208418136,1.0372868125225823,0.09443456330662195,1.9493826598411599,9.71808191380489,-0.04106264256524269,-0.02640764000273293,0.005864359048112478,0.42961215211008513,0.07572965766707264,-0.563061656001338,-0.6688460879357531,1.0871331686997852,9.967061023203922,-0.03806344318759637,-0.046350129358182,-0.11768205531509218,0.32033300341254856,-0.08710965590891032,-0.6783193491484136
-0.00530504016923973,0.01869641156474304,9.52409281180971,0.03325116219204975,0.12769246628840084,-0.0001974159659606494,-0.384858460881482,0.15051796074468485,-0.5594380222787848,-0.23368068905491274,2.191998088019189,9.734495396507208,0.00554366852894235,-0.007743582004588405,0.006149938778510627,-0.9646392057941333,0.2939209860079756,-0.08170373643208341,-0.31245572932531845,1.8935066416221185,9.637885584671968,-0.04166071659303523,0.014304997073251951,0.0012319467070664918,0.3121364530583719,0.5459571208210818,1.0453300580022051,0.11113230700949761,1.8876178817570717,9.675846040942398,-0.04028779982705609,-0.015864218287649244,0.004751787581202952,0.43244173151431325,0.07298220048035381,-0.5510894423629871,-0.5290867102489603,2.4354172700346233,9.203448033038544,-0.03557171720049755,-0.03316476717580277,-0.13888902036727963,0.3197125898581407,-0.08645987350607773,-0.6707534758445262
0.3426548365169086,0.39258052798521775,10.209116457940297,0.08790556755451555,0.18416489404182532,-0.16516679164856884,-0.37824494036885375,0.14565871717946205,-0.5630910090571467,-0.11773566199569926,2.2904684610485075,9.417778425303098,0.0086020276346506,0.0016240527293600732,0.0032721785258395587,-0.9590027638476925,0.29200468637688964,-0.08237292019481471,-0.3485034405671048,1.8292614179177318,9.55922550038901,-0.013622605055865128,0.0014969975093671146,0.0014267455795853906,0.3109519125302213,0.5469497217473869,1.0406853939521077,0.033162402001539915,1.7641261001490367,9.791276165915576,-0.017007930382558628,0.002014952877493047,0.009321098808805845,0.42957428233904693,0.07497763117887019,-0.5584270157735012,-0.5958544151721684,2.199085964276362,9.608348898483264,-0.021453341557816915,-0.003161580715201842,-0.05726479548016311,0.3183435732639303,-0.08639621671990762,-0.6761490924337912
0.49895363977038404,0.08022570983392982,10.149992666500578,-0.07469287091391838,0.24541532632794946,-0.24486335907395942,-0.38293686562209234,0.14123391343877825,-0.5595351319115675,0.053961960049352053,2.3288510863148297,9.539533995145877,-0.02625381970395992,-0.004252898263920658,-0.019364149253419498,-0.9695072282956405,0.28927433849337625,-0.07876261950141161,-0.11530365983709179,1.950003445246251,9.49344047288979,0.008204716156599116,0.005166302910803516,-0.0001478412103051789,0.318940459978031,0.5456826196801243,1.0497716575970408,0.26926904118705064,2.02537765494743,9.58739418891431,0.010594190833448754,-0.0022816734888588546,0.007936403447072804,0.43852829126634874,0.07368418869982654,-0.5485978033593142,-0.42779407477634473,2.4589580858872027,9.335248576884185,0.007640503452883125,0.0008457902776615161,0.011823692477085755,0.32572476911805165,-0.08824071112506202,-0.6657830126949285
0.5012148318789336,-0.6322311265261904,10.371688842290727,-0.3815376217421426,0.3237562254569308,-0.19185382962096614,-0.3720836182555086,0.15421563788720705,-0.5656025135498698,0.03832595258675507,2.259024179602179,9.600730792672973,-0.02766019464049354,-0.008545273857829144,-0.0390801281106487,-0.963927058188602,0.29612860453441947,-0.08123308982406582,-0.2729120991881785,1.834793950493301,9.559394736422064,-0.002583983217767308,-0.0014529722657164888,0.004675599568542584,0.3121995878865878,0.5523231648765893,1.0387567506096664,0.13725964991326295,1.7303691488856547,9.649313312226285,0.0008707407900788679,0.02647457373437504,0.005507243326713664,0.43180338257765305,0.07961769150687283,-0.560587019078763,-0.4534199143970186,1.9107375066423664,9.069651182073558,-0.009630939432709713,0.037809910436706055,0.03667977403708676,0.3201190532030965,-0.08245944564533074,-0.6792489489614376
-0.29270167615044007,-1.7981551525169401,9.942343785631207,-0.5624974487507707,0.4265283182692917,0.08481706402159761,-0.3724876123599205,0.16282664784790013,-0.5706253209541454,-0.4705145027758442,2.3548265252962355,9.426569925579074,-0.00807742474008822,-0.020271177270285205,-0.05899692326422525,-0.9724167713678363,0.29091472868460977,-0.08319717530008441,-0.4786828433345779,2.1407226047682077,9.61858788701385,0.054166557434589716,-0.015284345756597205,0.0073721796287178525,0.3178191506129281,0.5608464258288555,1.04126337214159,-0.09272217417937641,2.2120033654776985,9.85250753511855,0.05932512828276606,0.04249581214757456,0.004370092693685763,0.43496468089920187,0.08423016547940246,-0.5568807921867731,-0.8989585684995054,2.135797968966938,9.875829566247182,0.040491661853215705,0.07135403236802827,0.09308780823602633,0.32442416985072775,-0.07546030456525145,-0.6729903191759786
0.44645910734991845,-1.5299626261959394,10.020917031432148,-0.14117582689308003,0.5178713337842019,0.15551291507983123,-0.3627448497126519,0.1695751438072452,-0.5662832822295725,0.11659604828617269,1.9359882745546728,9.648972562751842,0.0017193515507740679,-0.007995454921182853,-0.013954329143609294,-0.9696073681594779,0.2988308855416489,-0.07544394679657587,-0.10957459258515655,1.7721199577642563,9.258542020379634,-0.018480899195599435,0.009677247271714063,0.003604039284496592,0.3087051681467301,0.5535205161612721,1.0499667598238802,0.11582224349398189,1.8461615264417142,9.778285723027704,-0.015701479339120757,-0.010649566697250368,0.005408217055923324,0.4273008444385954,0.08054611751451334,-0.545968850778505,-0.651882261025829,1.1558554397628744,10.749114969136363,-0.014123873714922887,-0.01685246712481118,-0.002048791129439247,0.31572214811567884,-0.08455112540742324,-0.6656746830356098
-0.2594039345248591,-0.4688215663277435,9.314182332364608,0.30704334557363167,0.528358794401062,0.04195599811716491,-0.35537955285701545,0.1586563117324496,-0.5736675648183392,-0.05554916359443175,2.2197230362455085,9.60208032623207,0.0052714767668338245,0.010502289943476356,0.01724907277623602,-0.969806893012954,0.29369481281812343,-0.07612540832263799,-0.23638784493228315,1.822784062705917,9.638502359679153,-0.035413182269864195,0.011892716040462319,0.0036833489791636797,0.31222446843668966,0.5579433653519069,1.037308162132746,0.2275028878634912,1.8116577740015845,9.55730954688475,-0.033180578671527676,-0.023696894937488583,0.007738372913228625,0.43084700470062315,0.08889249413516451,-0.5590891998097718,-0.39496799314734055,2.432349235164328,8.790636692629816,-0.02969036512787796,-0.037514031447408905,-0.026008861973106485,0.3208464740629032,-0.077834701630197,-0.6782077963851058
-0.3134046647279723,-0.4586670467628402,9.287019350736358,0.7208723204044007,0.44744616839096724,-0.1435123506776233,-0.352455094457281,0.14696931213134412,-0.5769588082599559,-0.09207044324378565,2.060104878680116,9.593836505321647,0.0064216267217636295,0.012390727584675626,0.04968000775129459,-0.974506751599922,0.29808989045646495,-0.07254446629358288,-0.25712314572267003,1.8868919148092715,9.652956370950305,0.012450312895460084,-0.00283436112621896,-0.000610910641026234,0.31437952135594616,0.5457265015683549,1.0387531082249384,0.17102409834992496,1.8229425169923559,9.715122799879277,0.011456464084921503,0.032052867210301504,0.0017490886969169744,0.4320365245182815,0.07522504785036971,-0.5610922344214666,-0.4745518086425196,1.5149770303816856,9.056838224003066,0.00259856542695361,0.046666185672282076,0.027455361544185437,0.3212962044579896,-0.08858282995429784,-0.6778305271173449
-0.6427490874165136,-0.3869215549746568,9.379698610768056,0.717681905152362,0.40520511029222345,-0.13996303423383985,-0.34532631126046415,0.12584878607313965,-0.5883826075472983,-0.26609255251421127,2.4101435579688664,9.436858097988473,-0.0073226116739543165,0.012183142896909612,0.034998959133464944,-0.9729628899589811,0.2934057151586562,-0.0780996878924959,-0.422865617908554,2.0090541520268888,9.375144334876094,0.031124828574802914,-0.004232457147337758,0.003817637841006069,0.3180014851556343,0.5539914579453515,1.0475919975397838,-0.13088028497294069,2.0168537019640063,9.874908714466049,0.034804279215496406,0.015694660080551606,0.004394930175293417,0.43364860250345966,0.07857609495012007,-0.5469048917208423,-0.9142117224196543,1.8540798920311583,10.642400123479911,0.028575188250350925,0.025863991594229304,-0.0435195852837621,0.32697598747107304,-0.0818886288261151,-0.666423900438974
-0.5854910385973904,-0.06041219588342664,9.09106367674194,0.7679029322474735,0.2944708222996339,-0.10574164340461846,-0.3340636301486328,0.11368916388559126,-0.5952526238085076,-0.14576205671592346,2.325345723498607,9.6056541703927,-0.008076073329861384,0.0030984163116239342,0.02027994437691002,-0.9693124976552346,0.29489935178585197,-0.07808725187029641,-0.26226455341057864,2.071227025847645,9.389989063502291,-0.08119234453926966,0.026648079516782868,0.005691408637915909,0.3067752083237814,0.5449990450652759,1.0435802017961235,0.02205412990500144,2.043878812860881,9.825407205782442,-0.08343989771122813,-0.05756647394309482,0.013911230164826358,0.4254092355068579,0.07352128772574378,-0.5572440890504082,-0.7845681372843425,1.7306728472849766,10.625996206378284,-0.06942666291013953,-0.09494067827965541,-0.06850851366772474,0.3151418171092014,-0.08884118624533373,-0.6750113404637234
-0.3937401743113268,0.3463900164496976,9.734146320124907,0.8255012847486847,0.21525949518355858,-0.12576349623237493,-0.3323332062658926,0.09912004736413757,-0.6020107554268136,0.06698428978714725,2.2680622676333266,9.52800320638242,-0.01403077770779266,-0.004869932053777718,0.005053613331676344,-0.966153970500363,0.2976014823757585,-0.07882313330574037,-0.15315715066985874,1.8001014801404254,9.773232017033257,-0.058610916678363316,0.012767943128611174,-0.0002187838808125877,0.3087380783010149,0.550851801889529,1.0443430989114906,0.3433151912808423,1.8071320601474092,9.482385083234501,-0.06684591250259338,-0.029720104233322504,0.010227194486078629,0.4252088375081116,0.08329328859717582,-0.5586684575458578,-0.22062430987635245,2.3974251359180974,8.238723876894085,-0.06764331863715306,-0.06230622642508127,-0.056004796566178905,0.3137919706415511,-0.08145400535974315,-0.6803256903842062
-0.4409737031038869,0.08029314713219146,10.325786397829438,0.7662249049092783,0.2619412754432397,-0.10146675877811394,-0.33150663003613295,0.08508105094799204,-0.5926576583801745,-0.10118843558646451,2.2803496787573065,9.534915150919383,-0.012876095097576928,-0.002484028730944602,-0.010739548049242908,-0.9713475651499491,0.29596093419098835,-0.06834697035028575,-0.24545631651993505,1.8289058977258892,9.443488038515161,-0.028175005734881135,0.008598053932143248,0.0009260698782333654,0.3111897628739604,0.5398740905719991,1.0389575375680689,0.10135984385127844,1.8874411722637305,9.80335751449508,-0.03187369613726941,0.004904055501304791,0.00800093345736228,0.42739072893655194,0.07621024566733701,-0.5596584235293943,-0.5578821897073232,2.4446165766180323,10.034706783230773,-0.03725205080069551,-0.006640158934161334,0.032285468890376645,0.3196337866627793,-0.09049829130226132,-0.6808116619513681
-0.6187186422810353,1.0432089942610354,10.170455413431435,0.8251761038052169,0.38443049417589925,-0.18151169995489397,-0.3233231757412723,0.07304505507704379,-0.6083494588568069,-0.08894305530013227,2.177191981137246,9.626419135922067,-0.0061113919174288454,-0.002117966549431432,-0.005602238795970313,-0.9705678880369522,0.3014574846176562,-0.0803618550774301,-0.3151822391655241,1.8010067996520718,9.510999616158474,-0.03003943839384425,0.01337492508431684,0.001603699464160248,0.31554884196715116,0.5471646868327865,1.04657879787208,0.0517156592593451,1.728645902710525,9.816383623151426,-0.03544397867321897,-0.03302366850043125,0.010762899543618521,0.4337269580662216,0.0786203950363734,-0.5571584966434119,-0.6223532686650284,0.9820311403848583,9.866696284628324,-0.0321918862524198,-0.05329371676807841,0.02729122118108867,0.3199984590452228,-0.08253497032085512,-0.672414430026467
-0.7976930584441311,0.8689978251618471,9.97784108691294,0.48900966982233113,0.4357245251695212,-0.21650594373376905,-0.3125527853672352,0.05602106003682405,-0.6165076570072212,-0.17619916951195458,2.2920969051357303,9.50236601580993,-0.006491176071143771,-0.004042020986118616,-0.006942351299177189,-0.9666373426119406,0.29759006101934954,-0.07955976819112592,-0.340217513703418,1.9575417226139833,9.565844003848742,-0.04023167026184454,0.012890920168078017,-0.003098138983721178,0.31724268069273914,0.5466665899292794,1.0485424281444113,0.10285315248952595,2.0183602945269836,9.685282982689403,-0.038959721980272456,-0.025905689466576117,0.003351500183679312,0.43421065864634645,0.07983346314305546,-0.5559285122868699,-0.5690843357555087,2.4595875913593575,9.353056882679521,-0.03622604847411193,-0.04316803537332861,-1.989558234208842e-06,0.320004779354417,-0.08180032244813219,-0.6726502531737519
-0.7403600205531734,0.6418239449743046,9.746666195076196,0.27789856663336365,0.45519400356403017,-0.2543947238986525,-0.3078383310212652,0.045881738841282146,-0.6268399816204628,0.016850834489942637,2.1714984741746406,9.594543466179264,-0.0003692458914356471,-0.00012493745152607097,0.015376742733910327,-0.9689973852292623,0.2928726857386131,-0.08538848805959798,-0.19572686196991124,1.8870775899709702,9.517752454741917,-0.03541494002948557,0.012418778558405228,-0.00010925120243952675,0.3233343874031448,0.5439636169246543,1.0493098337025537,0.21985219783803778,1.8445479643570948,9.63409413748412,-0.035052697080039094,-0.013396179825306538,0.0046664507393809375,0.4385993344239065,0.07713589190969236,-0.556395648627128,-0.43087835556168047,2.3008348542992527,9.558109493137396,-0.02500083628746956,-0.02571569994489519,0.05531183378149076,0.3214307304483872,-0.0830471370664591,-0.670685447131128
-0.9205020403671564,0.13337991362198598,9.840543052892919,0.5481945189824481,0.4908370257386463,-0.28105893067405224,-0.2909758871572701,0.04122531352193598,-0.6298920358760361,-0.1351940221458874,2.1611887414506854,9.563420162197351,-0.012166867449206255,0.01091986657849854,0.03696918549794187,-0.9598021822558779,0.3007846546325264,-0.0827148597196808,-0.34003009465389566,1.851690526266478,9.617964290781009,-0.0689018548886743,0.008274836735665743,0.0027392909480641867,0.3076740915393422,0.5361849454119418,1.0513732788691337,0.10516542101796118,1.9063436088267354,9.803868278050944,-0.08273871778677785,-0.014986870559246206,0.015684612071719464,0.4249279776058578,0.07498895522844898,-0.5574854351384808,-0.5777302305437,3.0217547102753044,9.963548494531851,-0.07469368878567671,-0.060319390285778485,0.159226409565563,0.31023348150325614,-0.08738076252318877,-0.673372438657267
-1.0958932595370423,0.08057273338079414,9.607326726193703,1.2548567443626786,0.5539979703440231,-0.33301233814860765,-0.29640059341336755,0.019782694842203942,-0.6319316959434648,-0.07143842095013012,2.075752202279827,9.621004514270409,-0.012062824520717053,0.02153417195299331,0.06298435415943633,-0.9723280051270805,0.30779405090943074,-0.0801968203568876,-0.26949325301260363,1.6175660011763182,9.658372745052095,0.03818760370363866,-0.004861065103970558,0.004634941038330747,0.31455366894948256,0.5517934635912033,1.0509792739128792,0.18188481147306362,1.3912124553132705,9.827088913552256,0.045436899513483765,-0.006738838875510416,0.005519303417233747,0.4327662836892241,0.08716115447393309,-0.5554198721954312,-0.23149989403940574,1.9408678534915618,9.17466371645505,0.05227445538162075,-0.03979873107499812,0.2986181738748915,0.31561330003815363,-0.07764302375057457,-0.6721936943559453
-1.3970807356506005,0.9213993934265066,9.661531758485154,1.9612534911048107,0.6026614100712406,-0.3807099205092199,-0.27532540886565726,-0.029844428562426566,-0.6325785621286425,-0.19492261508882108,2.252546178916698,9.502095024523628,-0.012451656712181335,0.027052411232298686,0.08911447267779006,-0.9635255395187704,0.3010806783115,-0.07493271800455167,-0.31028348849091436,2.061014743810608,9.400998186780123,0.08194020783600287,-0.009553761116622837,-0.00024243415427685684,0.3057527936390073,0.5464460665174696,1.0506573479815042,0.06533867922672948,2.0012782346626508,9.6604935629381,0.09358767521483718,-0.0037799186975906803,-0.009583552760941702,0.42539850516739147,0.07814445170681406,-0.5538060652482873,-0.6294161728585124,1.8853156851120794,10.390374706067753,0.0983351234414,-0.025349051707113705,0.3133425633716471,0.3067918136753886,-0.08836109712684428,-0.6722237352022806
-1.3244985793725126,2.1832409560839277,9.625219718687044,1.7264955099639392,0.6083838163644568,-0.3735122863925303,-0.27336625813465715,-0.06291202865347,-0.6439655344932373,-0.07911124035426575,2.211701558124206,9.539051103799034,-0.007987858482234003,0.031413466335668994,0.10660991107606081,-0.9715094372351422,0.30164428944738453,-0.08525438326467419,-0.3243435637318389,2.0953891332396593,9.457315661826504,-0.09208644588892245,0.017497645974399373,-0.013360929978902661,0.3100838452425186,0.5388490186101624,1.0567702467293818,-0.00940816432328076,1.919045317404645,10.114890626494356,-0.10833901655808455,-0.06461474563337712,-0.019045755799155305,0.42877544400634654,0.07421123577368136,-0.5501351116254111,-0.5704179507321562,2.500662545969726,10.921164896779269,-0.11831231184444892,-0.15503369825175453,0.3582866481065207,0.3076686698254181,-0.09500579955934559,-0.6676416850197023
-1.4130407085698007,3.265243877674056,10.12577995883466,0.9583362333009727,0.6615243865220338,-0.3445974277735549,-0.2472618432751551,-0.08198927635111776,-0.6483212616570527,-0.12182551882921089,2.4968899930466444,9.471031713498508,-0.005740064830398182,0.010268655969262193,0.08906431609420105,-0.9578856326751973,0.307371238471653,-0.08472150693206028,-0.2679561360776988,1.973907685823515,9.494045882697437,-0.1763789091558807,0.022029041763931594,-0.02876518690960536,0.31473405325961196,0.5378656217093327,1.0548463283493046,-0.021311385614021683,1.4536960870012219,10.301917438414053,-0.19048518432033318,-0.14183503681024384,-0.059617648699738894,0.4298013781920423,0.07886587586067607,-0.5545013308946601,-0.3191910428914558,2.5817601486630446,11.091715724804809,-0.231715964663204,-0.24062194750200025,0.4744266662683975,0.30655404340872655,-0.09079313074610351,-0.672986964378272
-1.5447646048937111,2.471695856623024,10.531788303138368,0.32631865883671346,0.8635325651589595,-0.24185304364426752,-0.2338287404693806,-0.093942588270358,-0.6527239660726187,-0.03465529795879198,2.5219222853930634,9.679886913803138,-0.0034897543988139245,0.009245523266991565,0.020369408011905416,-0.9598574027651796,0.309072337037845,-0.0840211032053775,-0.23911018815696328,1.9166278647877437,9.606227897279384,-0.2113573702103244,0.01930202448097658,-0.017704880223024348,0.30343409515969955,0.5325012398336146,1.062563861959966,0.3046592845594808,1.1024934927109042,10.112955759419638,-0.32206494416558346,-0.22423246238897543,-0.19543932309695597,0.41783170322552626,0.0874307978672376,-0.5499176173109515,0.02292655518214784,2.425897478120012,10.427770203962517,-0.3048046117755116,-0.2994251080963465,0.7812831269033467,0.2871413170201803,-0.08911097419650502,-0.6657412706567516
-2.0847252923145336,1.025067686258511,8.425682918709123,0.7069609341747696,0.9369635044684712,-0.19570651401754177,-0.22032659421946016,-0.09657636109667286,-0.6604251615217113,-0.05455363601362571,2.8969645018357912,9.462835183954278,0.014360304300234696,0.011455081170939893,0.07484040182796883,-0.9613537517236402,0.3206980387753706,-0.09196642597444149,-0.3720798609112144,1.746229328345897,9.389146786170878,-0.10295409790491782,-0.00768008579711567,-0.14010866141225367,0.3076578713434569,0.5332514312761597,1.0525857031844676,0.15750598679648567,2.050544421068047,9.861093428360313,-0.11330566166891565,-0.2575595735338971,-0.14689020842726816,0.42255530091805443,0.08770671178982946,-0.5608667519501118,-0.5412635587146999,1.9551368582055808,9.649599706033019,-0.0894877587081047,-0.2893109670584695,0.8176441600874388,0.2851057906044365,-0.0946085365298777,-0.6758501071180606
-2.4638464526961648,1.674339166236884,7.841669135587888,2.121620430064823,0.8015139578288526,-0.2275936851718061,-0.21266137319028752,-0.1544489040608943,-0.642764380241477,-0.3073608193002181,1.643378710102166,9.534214042282773,0.004819631474048448,-0.0023720912829987436,0.0827401854928999,-0.9662920339394991,0.3117981618453913,-0.07530872375031253,-0.3292736439409221,1.8430269783333475,9.445980451498738,-0.07922005985276748,0.026081774838679208,-0.09785128045758203,0.298087181648067,0.5417921366935757,1.0625528421283912,0.24688666918562052,2.175947587460462,10.00264765750381,-0.07601188634526194,-0.3095259140608685,-0.09308366511380409,0.40792502048187707,0.09605140041231414,-0.5597214532324926,-0.40900274756485194,2.6856224540841116,10.80111587149053,-0.03333318253275176,-0.3277885028522559,0.8304724617211066,0.26664626904797356,-0.08709492509235217,-0.6663246775701417
-2.509302416791907,3.592180464249947,9.14229664584503,2.960077717879262,0.780616095280706,-0.2886505842232165,-0.1893842548156236,-0.20383356146137208,-0.6438725420569694,-0.15326002824042273,2.3577545010026717,9.602610465954056,0.01820215041546305,-0.015100591624163436,-0.06516617878818048,-0.9584134987733044,0.31273542944422333,-0.08502504209026054,-0.32246579226078553,1.2874808875825474,9.90035107523558,-0.3287002680039449,0.014087174165793394,-0.040850035387467995,0.2984935058293008,0.527855878345389,1.0691075537858439,0.2830195632850147,2.2360235469405665,9.880931620657604,-0.33025134734141687,-0.33373046463944495,-0.023655321847716,0.40740200715373365,0.09335230911721883,-0.5563189795383512,-0.39263952846094397,1.9938980471256107,9.970732400940646,-0.295579079661362,-0.3866217260338674,0.782860861503585,0.2612675245733252,-0.09488248728541047,-0.66723779966805
-2.6992564233592407,6.0959489408809135,10.411777817445094,1.5011208605281119,0.7974930463817654,-0.42869097725176225,-0.1844558622267117,-0.23472237429907633,-0.6354211822866819,0.10163309052731283,1.9952287623628298,9.526283447654544,0.001772407488175568,0.00294073456070163,-0.011564831773067611,-0.9684713585318506,0.3124810111821002,-0.07850669656203692,-0.22280690065465802,1.7872281589898633,9.464070596879303,-0.2850100438977667,0.03686200930624885,-0.019364526157361353,0.3040970136114105,0.5261294628910497,1.0701183318103644,0.6843687641293719,1.5380242536480255,9.63545950997961,-0.27262362202917173,-0.35210472786312547,0.013804099721808034,0.40727039240221685,0.10365127356495986,-0.5665298843396579,0.2950514404737225,1.6390163415227819,9.203648030223105,-0.235466932450781,-0.3784302894241998,0.7347953883133289,0.2560023452411871,-0.08797814653206518,-0.6721384649659582
-2.4742627824863916,5.040866183676989,8.445070413599076,-1.127256802020564,0.6354384672692399,-0.5144404377446333,-0.16301294568575286,-0.21486255687273487,-0.6476352198259175,-0.14653791155970883,2.5191423909228483,9.512338227068318,0.03394891161843831,-0.015415326499229463,0.03932299083037324,-0.9618770155090243,0.31977536060176376,-0.08634541556715217,-0.37754278056330876,1.5102792866390042,9.771476885316092,-0.29676742387709854,0.03709538508246762,-0.03310265451491723,0.3048181265584317,0.5131978500883394,1.0669118996126692,0.5732358739613302,1.2719863733754297,9.679324625731903,-0.2900486869697514,-0.2982995162066844,-0.006812394364775894,0.4038886236486343,0.10051514543013551,-0.5726735116411189,0.28722039797508775,1.1513219109138209,8.936320877136506,-0.25858729632053334,-0.3369159153460051,0.6990254253496079,0.24994711237268893,-0.09402228786327162,-0.675974892923924
-2.6527299879227173,2.827661829914002,7.185113348136404,-1.1744550582837827,0.7023927923746462,-0.4783149391821073,-0.15563198144341173,-0.2009610604390255,-0.6483565552242222,0.05213298564470549,2.1320485991349853,9.744436352559,-0.00040523445716756604,-0.01082871606885359,0.10655470602622334,-0.9655871856571807,0.3190878856736802,-0.0792860612273427,-0.4120187426825378,1.1852345513226188,9.476487257388172,-0.16651171063617629,-0.0003696591249321404,-0.07437140503678577,0.2991623538489398,0.5241700836557348,1.0766698452264285,0.5367966323215204,0.37799092035701964,10.15818332158708,-0.16424791650804393,-0.2996189924829362,-0.07260832797466708,0.39340294172685275,0.1120103852661542,-0.5692858444869205,0.4178421893981411,1.8567011816427372,10.424571707701158,-0.14366386845510717,-0.31513193502225434,0.8733712386228685,0.23767231693555585,-0.08184481645866604,-0.6701966435206401
-3.4892782053530658,2.1427145701394794,9.041318204108794,0.3819709068202629,0.8447383046555371,-0.3905672246510129,-0.13220226450604977,-0.20664229989291907,-0.6493976688119825,-0.08362173952999793,2.20377683882191,9.348698877441773,0.024573182489400467,0.04190008840386029,0.1512738566411636,-0.9583132088814711,0.3271830620220422,-0.0810223670055277,-0.24719570198943563,0.9596127996659516,9.693949354483404,0.21076091842143352,-0.022718276327797417,-0.09765663132039565,0.30280189498211213,0.5248836557612754,1.080115830164025,0.8283345245385385,1.0314987846986083,9.793831392305302,0.20361627586744008,-0.32176561191596603,-0.11753271767137216,0.39773581686551507,0.10708742178869501,-0.5634147773239283,0.5194419249657564,1.3701975111397537,9.588867040313382,0.1950720732773751,-0.3050167298411431,1.022545966635868,0.23401787147918005,-0.09294949045778576,-0.6586622980784553
-3.769815213294843,3.7640933911996757,9.070042552639688,1.1503317308166536,0.7491674381531165,-0.4238097603329327,-0.1266745718387307,-0.23740275160937863,-0.651193650152372,-0.24213331764980192,2.4400627806770325,9.639077385862434,-0.016256700380925304,0.0001337374878512558,-0.10179897037303062,-0.9676807547614297,0.3136157665437744,-0.0873021207102715,-0.3432389606915106,1.041662569225582,9.75969763861385,0.4248733176213576,-0.0189966742744863,-0.024218889960730294,0.2980567904615107,0.5293419377021511,1.0622725593252962,0.8255483814593401,1.617825625394907,9.66845936403807,0.4201925698367264,-0.29358535539916014,-0.0672310734122002,0.38612102490109423,0.09938757974283327,-0.5803824505024171,0.4578078557050498,0.8478162796806318,9.282137986574387,0.4033297564650878,-0.2919164207268322,0.9337953538639224,0.22051915008868594,-0.10571885127061871,-0.6707631282257429
-3.725057941382218,5.023560445292469,7.417453377916655,0.10357581745122507,0.6075091955453648,-0.46436127006796585,-0.10063325906630627,-0.24415396376246504,-0.6456263221978875,-0.24986552302719883,2.5398264167618927,9.450678967110765,-0.04322329459245198,0.03754484677726138,-0.17336278044045692,-0.9564529263693672,0.3110494926951225,-0.08425956699141587,-0.6078937636868574,1.7027140070775886,10.009248210014299,0.6062828152135358,-0.05446922592923944,0.0019489693222605859,0.3085607951540184,0.5344387723557213,1.0633378625375047,0.7659697082242582,1.370329057408767,10.08071272664974,0.6399133098020562,-0.25843557112343807,-0.07304345274068112,0.3913912206340067,0.08980869919812143,-0.5713502138775863,0.5674709478933928,1.6284247435542007,9.49438276678497,0.6285543395300816,-0.26071389777755877,0.8937225959628277,0.2192455015994897,-0.12174307192144432,-0.6565555554189745
-3.6215232066403473,3.9689924741990046,7.79030532216094,0.10226085304845,0.8085029664573088,-0.4259194060494721,-0.08591490459240529,-0.24168922237652143,-0.6512974737106773,-0.30395274854529225,2.307982392937995,9.238410090810213,-0.05304498174535468,-0.012656047528175625,-0.1307060822746958,-0.9581171313338259,0.31145837666773635,-0.0906250335676544,-0.4262929933366506,1.787156645725756,9.606621144867967,0.3047576969563461,-0.1112746160144227,-0.03378247200408345,0.29566120951571356,0.5388786993597885,1.0593531014959119,0.8097151803243973,2.088946254742298,10.268345858356904,0.3355426849104203,-0.22764851459753158,-0.06055780007269008,0.37428487971070307,0.08644485521290518,-0.57076344146955,0.5955876418295836,2.7477089345057104,10.811386053484787,0.30584053118044563,-0.235372594922185,0.9576144036932924,0.20012074810498923,-0.129050901624723,-0.6533099702941518
-4.303264467454024,5.074171332352012,8.52329300288947,0.67680907773071,1.0421939198133645,-0.3246638906243804,-0.07154879683614106,-0.2449444531333129,-0.6487418374581085,-0.20155093398006033,2.394792641512775,9.912798186909285,-0.01688010268114852,0.004292708160482104,-0.2917234439158478,-0.9659817163226442,0.31750807959068034,-0.09001562278847491,-0.3695795614046346,2.3378313639598733,10.038629019098599,0.27757444611736487,-0.12674919563145148,0.014797311121217387,0.30043668559139614,0.5559936931860279,1.0462521612404048,0.9358993216522464,3.1008608877207964,10.501869835437082,0.2825665564181019,-0.2897808600700694,-0.014263260253759114,0.37334087222857115,0.09694491369084487,-0.5704802810317674,0.7974974083787598,2.6717577085076396,10.683638159339925,0.22382163276582467,-0.3009329933210785,0.9799590295042216,0.1955087080052437,-0.11951684303357193,-0.653285993245997
-5.746594969172338,4.7895397874574845,9.760801572082638,1.0609467555615666,1.0643748476926662,0.03587261795017481,-0.045741668974880675,-0.27672712629255314,-0.6522858249588578,-0.5000872649856514,3.260257460021226,9.504779264083576,-0.009258724594555207,0.05689169617500395,-0.7240289574417678,-0.9639270608344293,0.28444408968773166,-0.10137691006247959,-0.41850648974586124,1.5992907821201947,9.874358129346332,0.1889547175305805,-0.16991600011027425,0.10609734454011466,0.29736563260885435,0.5492157837388334,1.029365250448195,0.8848717005403546,2.837788616798052,9.805701542805759,0.17482508583012238,-0.28863240178362076,0.10079883216639386,0.36067499041683115,0.08823128524653012,-0.5781840089777338,0.7676371678602429,1.4253527800630132,9.62759521337318,0.10406297289827399,-0.29505786533579875,0.7271344948089415,0.17988420592038135,-0.12800171426050766,-0.6548767119082531
-4.954367614674735,4.59597364958092,7.0768999868051,0.46827835282421787,0.9047584082294471,0.21829004842721145,-0.0313651609576135,-0.2753499366723616,-0.6491842369817904,-0.09106060058145146,4.3662357832864185,10.639012903436107,0.0472047225437141,0.12664101570325642,-1.0775832672834238,-0.9651658277664596,0.2669763207680894,-0.11316968986446377,-0.38385868890055985,0.912926723001792,9.257973922803776,0.2606916517092426,-0.1899372968590674,0.23890112211117276,0.30541856758266783,0.552119569126227,1.0308958290092267,1.091179894070766,2.4555844500132546,9.694547529992198,0.2659365501458048,-0.2561380895832255,0.216516899895143,0.3583896479620047,0.08965088775839658,-0.5659878693601144,1.0540879882861782,1.0278266564369063,9.328294758212966,0.20834390752550533,-0.2755540046694092,0.4712611626260485,0.17677539012985258,-0.1212815901495533,-0.6436248724002469
-4.746202104865286,4.2571115869814955,8.516323349483931,0.08101025379777677,1.0617814732699904,0.31144891005464803,-0.01311530698925904,-0.28156409525505316,-0.6454041782199592,0.08883068436659966,1.4864934801020124,10.028332651965737,0.2092070495002052,0.33502968418590195,-0.8051705539224056,-0.9603071814701823,0.24690605932829138,-0.12147069166580245,0.14444044487430757,5.195260982310199,8.901919710363813,0.3233421100232881,-0.23110421050218108,0.1524307651028866,0.30699766713217014,0.5407005361386829,1.0106093624060417,1.094953515138769,3.255877845421509,9.0762500300175,0.4074569765336514,-0.26578623077343483,0.2670155860718731,0.3491073285288615,0.07481451275927577,-0.5719821280154072,1.2045725723671006,1.0145252601809776,9.856941042820772,0.3328179706711772,-0.28581425274152616,0.17326909669390678,0.16994554546102134,-0.13539353858778247,-0.6463428567777589
-5.664150361886691,3.380417693709697,10.581487876740125,-0.0644768995715877,0.8439448151824225,0.09539624905803112,0.00623503110244699,-0.27644945645029767,-0.6495256609184016,-0.880240754942329,2.206661311624784,9.089878870716756,0.19301569749995667,0.47372927248785235,-0.36266712509922283,-0.948571161440759,0.24205304937721442,-0.1508742880152921,-0.8988545365115692,3.899709055247188,9.275786814993737,0.4140470983990646,-0.2272214307965358,0.07222907256147161,0.30527222615041205,0.5544549999056589,0.9835361647762564,0.4546638501508841,2.0333978540284225,10.262035519289173,0.4459267030609372,-0.31042708549238596,0.08765577978607968,0.3366969243192145,0.07292963531079465,-0.5781893440062829,0.6303460145601608,4.2056771933283255,10.194838398304855,0.3796310659365239,-0.35118676336633703,0.2539401656299669,0.16098433526446534,-0.14068359707775668,-0.6514434919328933
-4.883408027891822,2.4540535379407236,8.087273095004663,-0.3407671425313472,0.6241720288930203,-0.42571259643284104,0.01932064594235444,-0.2790417950390992,-0.641115583457248,-1.0766814954213624,1.728777227431707,10.084191014363807,0.2272016029683389,0.4614714180175447,0.09787283675000862,-0.9382317517613439,0.24032624567415778,-0.1603002329256088,-0.6110596517717967,2.1511931259501575,10.061895209652619,-0.6346650536262358,-0.16780527824708152,-0.13059583949738504,0.29526313420830486,0.5466775729545971,0.9805135510868576,0.5306363146046185,1.7840692480246183,9.955715090009592,-0.6466443787213825,-0.39459771525932247,-0.037672530777214046,0.3294087223692747,0.08759557520638817,-0.5764726095143672,0.5312082830913206,2.666307331036214,9.962753141142798,-0.7265671165331868,-0.32125464104675255,0.65753681227257,0.1524507335152114,-0.12139963704850242,-0.648938440082082
-5.2120273334526175,1.4529066237464445,6.59676000150464,-0.624742598471846,0.7091186955122645,-0.7239187934973299,0.0437907090963656,-0.26203991717843184,-0.640636547498625,-1.0523523787815245,1.5172832087285764,9.24794706076036,0.1512893261965791,0.5367716349576431,0.3280352459247082,-0.9183698142731256,0.25050644644700487,-0.18222762149421481,-0.1533629805150863,1.624632045659248,9.150385069394488,-1.3359206196154454,-0.12513855192923531,-0.1663646741509089,0.2870222104268402,0.5205276394635726,0.9969808404704534,0.8598983360915018,2.9775626030683577,9.359507380174495,-1.3237205908863523,-0.45496265967844707,0.03515262913069682,0.32354432422254165,0.10613096008676126,-0.5676480041570138,0.919175604142161,0.46053439050747624,9.98350222796223,-1.3586720738337426,-0.2966326378032973,0.4467301758558242,0.14432113653775303,-0.09705247828058661,-0.6407550923005197
-5.469480282508412,3.960149301240471,6.189405967404004,-0.05949575247496383,0.6435522135962655,-0.6346992362369633,0.05718938482648535,-0.2519082334528693,-0.6345040068697935,-1.3900915177440076,1.7714117797798696,10.418913835334816,0.5434939457433499,0.41727138729202673,0.20685189719630792,-0.9085009647611537,0.2576903704211252,-0.20322527459269493,-0.24079781473421044,1.0536986976902247,9.383895133837022,-0.9253292136110824,0.005592534512114176,-0.05258317179123395,0.2787672570107485,0.5134954415224999,0.9878686493938938,1.0943563241978957,1.7247015668472438,9.412988340263668,-0.9130953957721091,-0.513830123212087,0.10146863795590694,0.32075902838937664,0.12839752541164695,-0.576850444798189,1.04217535695672,0.10671140151077699,10.159395115319844,-0.9645838460638246,-0.4007060668258486,0.057602183775257755,0.13989303150989965,-0.06912500500897381,-0.6480942538006949
-5.269085425490386,3.009278977427176,7.263052518521235,0.11155335266876214,0.7668866655690624,-0.5269723228118567,0.07098637362249836,-0.2606066111189542,-0.6261637425969514,-1.912393408641579,0.845782094155085,10.329524113397765,0.548781396209372,0.21254803468328987,-0.0690842127462078,-0.9009570860488997,0.2419903892649744,-0.21594532992556636,-0.1417980574033543,-0.5610913378087378,10.758136878190138,-0.3209738088845198,0.12973826014158316,0.14677523518154767,0.2626167678836311,0.5062056190654713,0.9904190475000457,1.2868464589161204,1.3518183040093747,10.207799912161398,-0.2865914313765081,-0.5366694560164521,0.19865511722975993,0.30503827534142985,0.13253859240187565,-0.5625481327547497,1.2600712709718118,1.4076224119867287,10.670279281627597,-0.34821437612754236,-0.48949857885679154,-0.08113446199543001,0.12369454936291016,-0.058896984798596494,-0.6416736208326945
-6.537099054054374,4.424764550590778,6.534188135646278,0.277490209931547,0.837502892394135,-0.42876448706673886,0.09117627157958533,-0.2687856385469569,-0.6218996675724713,-1.4717064772685546,1.366264843370293,11.311440364995835,0.8153650193415378,-0.06480609163319316,-0.34465427537084736,-0.8844907902713881,0.20878797124045034,-0.22792815708330605,-0.25646422237734906,0.2042536520220513,10.87740863143065,-0.28323550271073333,0.299622891089636,0.3122498190540489,0.2466843926029318,0.48256436127576763,0.9904815617842834,1.6723225457458621,1.7949528666262795,10.37879756443111,-0.2128099080553081,-0.5554482753519815,0.360594025740861,0.2976894626121132,0.1323044257149901,-0.5594311800069227,1.5313780211488988,0.8975962622518662,10.212250370421133,-0.2706309813199016,-0.5248549340856106,-0.21562456815218525,0.11484153929737326,-0.054524897377966966,-0.6373865651570734
-6.4102412716150985,2.28185536234435,7.780643814917553,-0.22803847794629825,0.6757772229844463,-0.4752148710639908,0.10685233864359789,-0.2665909952610914,-0.6258537030114103,-0.9502707800899103,1.7980171681503603,9.729563159209045,1.1783942460947532,-0.05907273686254192,-0.2669392369610493,-0.873434199121188,0.1809088529675386,-0.24049640853139218,-0.3490241087141433,1.9990795357814417,11.082411355019005,-0.4966099818377368,0.30165698795325663,0.35115627981867487,0.22471694206641168,0.4553081109194337,0.9797484794013703,2.177975232070798,1.1685366792813348,11.050985100201896,-0.4033843596849769,-0.5003034054484147,0.4713352657888654,0.28618522792050566,0.13744343003562393,-0.553392654627915,2.0927377485702117,0.9771813315250604,10.235332603659064,-0.42717302983848054,-0.47209267233827923,-0.37805440269902263,0.10434101475983687,-0.043530232430891415,-0.6354969260015348
-7.070824830393809,0.7491259218696767,7.798551189221127,-0.4171200104778659,0.28502142530381763,-0.6657896296772167,0.12056567852500384,-0.2471375169306524,-0.6232620155024344,-0.5029968960228199,4.5908470759239295,9.130227718653412,1.6947862865361432,0.13110974332685044,0.09536412039544719,-0.8477992448117124,0.16507295052110454,-0.2562511246588924,-0.4424563212114517,1.674719511132591,10.538811206256465,-0.6705855628355116,0.15784640413302858,0.19996323280006406,0.20498856717575095,0.42196723800113445,0.9607124135468046,2.505763794326979,0.2874824473523832,10.963200106728571,-0.6017483439971598,-0.46875455951864287,0.34518091375416315,0.2729686672128108,0.14575367712647733,-0.545401438052901,2.4099398568625654,0.5539916437798106,10.393055117200927,-0.6225297396100311,-0.4283054526614636,-0.26086154314602555,0.09451286300607034,-0.0291631145786582,-0.6296503090545321
-7.085286170808894,2.0080119962544165,6.769397719505081,0.32723396406150423,-0.06223667970437772,-0.6965658964189739,0.12176999658000977,-0.26933264225860426,-0.6061942507191098,-1.3565828229791297,4.842103573395722,9.038783679797154,1.3289934806742079,0.392509340906415,0.3321091951401908,-0.83211119942489,0.13579164481164316,-0.2663272920299748,-0.9736911521145195,2.253888280106753,11.12727058615141,-0.6825108143476128,-0.15540760518157065,0.036443576502412506,0.18664070277605124,0.4064910130242251,0.9258684169701443,2.283967641697164,0.4293121807836828,11.326608004653778,-0.6373416956932398,-0.37360763746598685,0.19321413406878268,0.25565166134952283,0.1614164868255987,-0.5408269214380051,2.273869974145409,0.1517559374071623,10.106898772806407,-0.6234828306809284,-0.29203170040226756,-0.2336699020846654,0.07971994854435559,-0.004931895001844905,-0.6313529318984558
-6.4124604777218455,3.571088448646897,7.091548082705356,0.42523342257836527,-0.07231013409215035,-0.6882200716484986,0.13105479407320644,-0.26765323785711354,-0.6063170610060654,-2.3498827560089173,5.532785931435024,9.397850031295434,1.6779260079887186,0.20265858169549214,0.4305880658787632,-0.801362770827035,0.12846959547175285,-0.28896757211275687,-0.33844651742726206,1.4211353833674927,11.480914208923577,-0.28350392841302147,-0.01058552206091334,-0.05837940806553546,0.16984448970905075,0.3800724411773692,0.8746452543854265,1.809347593255065,0.3606437737815072,10.010165825412471,-0.29186435835406743,-0.3476962917839895,0.014832157605397304,0.25468652647214357,0.1638638324760027,-0.5413117419572854,1.6987733526968802,1.1208898047789175,10.21099409112838,-0.33413174348664826,-0.3047731240063603,0.017244146310455802,0.08054063786206536,0.003894829660723038,-0.6349037050220179
-6.707051346880076,6.439408706865485,5.3153384886296875,0.3772447411437859,0.3183688320429247,-0.2702426571823588,0.14563554698522835,-0.26827100200597565,-0.6000641462477351,-1.513216187100145,4.643436177442126,8.440722518636228,2.083521231435583,-0.026007446605167538,0.2681916171513043,-0.7725180120076183,0.10850491307407187,-0.30514410469577397,-0.6551123263160746,0.29436865155125325,10.185773514281507,-0.5780721762939566,0.09637167400885459,-0.16351723933120846,0.13663946430550422,0.36025906756974546,0.8330921100491124,2.413927159198734,0.02671771119655146,10.381143339318466,-0.6024938854385394,-0.29609650042279256,-0.025989154056016116,0.23481913256001827,0.17459916151643304,-0.5245715333703489,2.3084307007473663,0.13300630682263131,9.447451438922426,-0.6333215474297218,-0.2677536879913318,0.1174338270996192,0.06406588977759867,0.018002345721118727,-0.6260035474863875
-6.216337566631452,4.359493824251704,5.533166984962936,-0.1019986132474791,0.5222248397054863,0.007096146431001406,0.1544963292754265,-0.2765283311793632,-0.5866436968838712,-1.1921482178634997,5.456506543931349,7.5347670148567465,2.15123033036142,-0.16075396200921224,-0.20246151647272537,-0.7511592790901084,0.06518112339885128,-0.3079511254181292,-0.43040361377960057,-0.6295814404337887,9.519948943583616,-0.4758858486326061,-0.11007653594207882,-0.07464869909259295,0.11681256992890528,0.32697822563797324,0.7935469171972425,2.6199598776593813,0.3709438617268949,10.014670762052749,-0.46318064984852264,-0.24447288506630951,0.0625888438721735,0.22398304961252558,0.17677516921413275,-0.5114604307906798,2.463868189107746,0.3029048195339579,9.764573277003148,-0.46780757263646067,-0.22420306068879334,0.0646693850037235,0.058858806687945776,0.024547000025862933,-0.6204068874351745
-6.273384276827733,3.1637590117456282,6.580893712306398,-0.10098589886984863,0.5978992124912299,0.1954860706362881,0.1752943932025978,-0.2648748564184916,-0.587004133950534,-1.0241303290911523,6.02708630134325,7.644588347184574,1.9991225191604287,-0.2568393972554209,-0.37019547472265796,-0.7266947384232363,0.04178090559349375,-0.32241544236089525,0.141363894770065,0.5255469984067171,9.384845363132156,-0.2420893390461595,-0.18354848776943045,-0.004921009830192292,0.0875691731852386,0.30059344564673585,0.741747541431636,2.2553084665189043,0.9623340887255032,9.100088021320785,-0.23609492951613184,-0.26341829104607817,0.061366214582100446,0.20126514507132764,0.1744071260889395,-0.5109122382932456,2.2045682672472693,0.8208124588091766,9.84668663187628,-0.2774182387097833,-0.2395921813000193,0.09735811308802342,0.041820103452124446,0.029745642602996274,-0.6226035087946328
-6.974789775866242,3.4957479119853305,6.919401976981243,-0.18380219384278199,0.5645860425342806,0.15976144753994864,0.18280851799839595,-0.26909749884631834,-0.5833143389047503,-1.0248226451946973,6.207216332964632,7.7073882904448405,2.08564930138175,-0.254641314070372,-0.2481802087321453,-0.7107086836850651,-0.0006157294731700316,-0.3260061546763463,-0.3563429301250825,2.1905968261801814,10.34682453050032,-0.057357442039464475,-0.04515018291070571,-0.0017786840133342677,0.07353115249659938,0.30419353849902775,0.6913639105521509,2.392440945341896,1.4155965752227253,9.957321160511759,-0.06493173258763052,-0.29452205649444196,0.029704555163361075,0.19252219943214455,0.1910320542119666,-0.5096861757114526,2.334848322394577,0.5741441959713032,9.582354427640093,-0.11066330815143377,-0.2929744100417895,0.03910645194397249,0.03553120728527572,0.0492967825513232,-0.6227424790199704
-7.121969785011555,2.476331310639378,7.061397246417419,-0.3973517881138764,0.37350894860875405,-0.1164824239226169,0.19379245614956314,-0.2581974458242058,-0.5793953395673596,-0.5225196246211826,6.570171391593025,7.24151271137594,2.4633807486195836,-0.047639453319394995,0.05884650314036439,-0.6889240810893856,-0.032497996242704566,-0.332346546256095,-0.15079000393276054,1.8484287635539989,10.290957973765376,-0.5442107255839,-0.08312516241883051,-0.16073183051682083,0.052267638640322876,0.27922027012414946,0.6508565596740664,2.8477700032726094,1.2995616616263062,10.4167299387383,-0.5621079429719946,-0.2677635580655336,-0.0010251784617889463,0.1780376388919123,0.1963953363640858,-0.496833192885933,2.8102348995687425,0.7444974439779426,10.049694070431308,-0.5723995937425317,-0.23464536501592143,-0.011678635876236753,0.028410997077461968,0.05928385423281625,-0.6188509058386896
-7.2718118569683785,2.741431390499361,7.148414923333762,-0.28384960581586294,0.151576023885536,-0.19398120011545092,0.20111802405492907,-0.251412504479508,-0.577277154775401,-1.0311104807298894,6.161972695666742,10.85323321039295,2.0588887035012187,-0.0006642654613955403,0.10384877666813411,-0.6677569018540302,-0.05237313438149448,-0.3341764624242181,0.47425164908479356,-1.813095433151564,11.030652700407229,-0.7708371396526434,-0.03822005733034431,-0.07087371126021443,0.03872185013198245,0.26501873445823154,0.5933446530858044,3.29993890499645,1.8942029258827027,9.970866004983382,-0.7553727890913248,-0.2775092398701737,0.07416578837355871,0.16516920196774665,0.2091503294241633,-0.5005395643144523,2.9776962019303874,0.17783438002884194,10.096442851689853,-0.7642828643380579,-0.23660875521337887,-0.21299696521685224,0.029522391562929795,0.07691177142795852,-0.6235205567527172
-8.06708588966863,1.6038131603431478,6.972028329855336,-0.17870017111542985,-0.03326334558994717,-0.3066291654547555,0.20638035369076554,-0.24864096144095646,-0.5661978419361833,-1.7665234595959896,6.705628519629033,10.91444634249034,1.6415786488594064,-0.14735856638378014,-0.0996184060364498,-0.6421732659062788,-0.08818752819457308,-0.32237866951644784,-1.0021946516993947,-1.7893992862832506,11.438622129371314,-0.9027339651877293,-0.07819602818099051,0.2993097636131453,0.011876922772815057,0.22982918466368152,0.5444668757392647,2.546178723359759,2.3506697611330627,11.079505950914223,-0.7587994050439423,-0.21623252901037718,0.5892861833020824,0.13848519465464362,0.2113911172601097,-0.4902353913447988,2.148065159269726,1.028861602486313,9.736045430666746,-0.7110183173515169,-0.17568322058578872,-0.7972497952362376,0.006744873635118182,0.08716732254461598,-0.6179478643745354
-7.473015920316914,0.2597066279455379,7.6521069267686075,-0.3864307012699315,-0.25070547603624116,-0.7606594748226505,0.20935641638859215,-0.23571026508267598,-0.5662457951275055,-1.8304413383226745,9.317592295145753,7.084532831507027,-0.9913439114539042,0.0495876756808305,0.15555786663761684,-0.6141742421086231,-0.09423656230377928,-0.3379735338224935,-1.4085675959995159,1.974379328305824,10.460206677862192,-1.2614327309228617,-0.12583389611073187,0.30476652136854565,-0.0054386104970680586,0.2107153179578964,0.5003423940410844,1.861588700733992,-0.10890059379100767,10.158362173610739,-1.1448257378263667,-0.10076016516627952,0.697700426636661,0.12036806742162924,0.22896715885492983,-0.47589234676981673,1.6988208590129,0.677326134749406,9.678801099071833,-1.1009201963255975,-0.09544040042543704,-0.8922911325963292,-0.0007698017378588943,0.11119550954749853,-0.603163762663803
-7.441706925771115,3.0019952523304476,7.576676503094525,0.0678008534860301,-0.4262357198436222,-0.7965326677374601,0.21402422251730535,-0.22912581997336812,-0.5668441265968932,0.291114211035014,9.70400593421849,9.201810419533254,-1.595073639080856,0.17765205365783646,0.321636670110092,-0.5762490791309287,-0.09139751346819282,-0.3516303427771673,1.9531009525139278,-1.8375909471352343,10.400411477525196,-1.5270316573983007,0.026444543381450362,0.15000398945942975,-0.014898279918122898,0.1845266481089731,0.44746289048830457,3.789280465290664,-2.487728323734929,8.676766287744679,-1.3934798052537003,-0.14821581153737334,0.5628401283263548,0.11084698813377046,0.24264554955852885,-0.47004678213036555,3.7779515564301827,-0.40856655658971863,10.777601162375612,-1.3195608390055416,-0.18696172146906093,-0.6186950396546884,-0.005847041109686266,0.1336620740978134,-0.6022729250424033
-8.754716235719124,4.002929946265282,7.572572490615495,0.5208346680084581,-0.6922797877880861,-0.26175600250156955,0.21103052217650664,-0.23283917113089814,-0.5620397790396932,-0.41223083592421805,9.46070106688898,8.825627327507995,-2.17198939078235,-0.068782628955382,0.05327055892236736,-0.5383772986223632,-0.0800318601891248,-0.36708489280785594,1.0579776316644192,-1.646443009670736,11.084141601119597,-1.5839059032998626,0.3201422286924307,0.07667302374165821,-0.026785349849582897,0.14615580103947498,0.38818369757364213,4.053648369285292,-2.604330731344062,9.909823199597184,-1.4514544145706796,-0.23488139198966834,0.5093706383305597,0.09448259920884967,0.24367001690569542,-0.46870235222571477,4.209734514104704,-1.371328306714168,9.81445692278055,-1.3942060692383775,-0.3107990719186456,-0.34957171684131044,-0.014896671898062236,0.14586254474342725,-0.5993671486195529
-8.031507081323348,3.003801554453739,8.184452364777268,0.720078331938152,-0.8740661259703337,0.12031464547751904,0.20167682458048958,-0.24456796857378935,-0.558870769600469,-0.25804555399732665,5.653582218614719,8.148757465743579,-0.8406695970331852,-0.10995255588521113,-0.1622034956324051,-0.5059563686104902,-0.09381325378942025,-0.37816963825369115,0.35864446198887595,-2.188554159110844,11.413595455598921,-0.8332053420853222,0.2956789995135928,0.12962382301152092,-0.046143052670979505,0.15149893731528558,0.3311761853825579,4.328819168941972,-2.539974409899247,10.409547197951673,-0.7862606315384882,-0.1488637213956701,0.33807671216297935,0.07087349142800427,0.27108241909779723,-0.4663232396073466,4.427124635448588,-2.5589429575468525,8.477169316805437,-0.7752105241886479,-0.20382157562264375,-0.2192088509751941,-0.03126461519165419,0.18002111170476628,-0.5931731676310872
-7.1514443730530415,3.215208471520939,8.150282740458637,0.8375856669527691,-1.03433464971204,0.22724972159577247,0.18157066295103103,-0.25675942634777077,-0.5548472055242657,-0.42633751401831144,6.7745459307831,8.457903214223123,0.223894003768782,0.11212956303086423,-0.13580874332638557,-0.47818998828748044,-0.10833425772221414,-0.38659706743119016,-0.18614619453352094,-0.7322974690094565,11.573078358678993,-0.13400528133398315,0.12796545935838533,0.14623734674766722,-0.04520826306862585,0.1436316448939575,0.2652400951484787,4.155073014408162,-2.120708495583649,10.790568547023899,-0.07944562068316852,0.027044920838052208,0.2439341592441075,0.05988610023490631,0.26721961566053487,-0.4678879480066684,4.398972506402748,-2.352290079322584,8.54458140676571,-0.102153143837979,0.027386731824806658,-0.2489214475089949,-0.03004480966942358,0.18001751374811312,-0.5931516840875325
-5.803309823071174,3.046425223941524,8.705715179969273,0.43310141128449914,-1.1709253376281705,-0.012912395816786626,0.1728957679198749,-0.2651495231422163,-0.5455236878952664,-0.30348345908118973,7.338320143004497,8.838274321261565,-0.15643676612339077,0.35192724036538053,0.04334293984795227,-0.44000048610081904,-0.11784071611182556,-0.390113338129184,0.19033093599030068,-1.1240855917245771,11.10677149295331,0.1993178807127836,-0.007602439963438397,0.11911233975019911,-0.055779947805300954,0.13017216566174275,0.20164725606556047,3.7891449308601994,-2.0780884847145704,10.12847494130909,0.2382527631311686,0.15939646270836133,0.039678764829884125,0.037673630946500815,0.2616918055657817,-0.4710116857786312,4.019699357894042,-0.4071015953591345,9.246325269175117,0.2128089903168313,0.1818753306890649,-0.0846527951994151,-0.03881974219994996,0.17371472998858525,-0.5950855356757736
-4.819161450403666,3.4744708141725367,7.185830096417007,0.20038208885741327,-1.190902705439416,-0.20790381319307072,0.15712602357229816,-0.25768377294968653,-0.5524356174576109,-1.16803228137778,7.400222478003765,7.989456301316644,-1.6857611342254204,0.3339898288634919,0.19451057509749986,-0.4088953955280039,-0.1058978152292429,-0.4153923560089549,-0.4720389283714192,-1.194855121184073,11.251841261659672,0.154062074606927,-0.08009541613294978,0.09893176677033146,-0.06065156168123795,0.1352677878364771,0.13302244311939548,3.760015849917525,-0.835337122601405,10.932910372680873,0.16704300339200012,0.262893323620326,0.014124768268498039,0.019710836681499217,0.267414722038681,-0.48211065087621763,3.6684948142063374,-0.10624071344356421,9.285159004046953,0.10647159462865463,0.2761930444951767,0.10522246981855543,-0.04020482817049807,0.17766795995683998,-0.5989741369245883
-3.9753481390549483,3.623545903201317,5.264170582003808,0.08720451864134895,-0.8163601165759484,-0.2162805051677901,0.15878199727286482,-0.26407437376313847,-0.5495694705063648,-1.7216121359484766,5.098411019912189,7.217432135745501,-1.9483416839779537,0.009023008050726249,0.2465321225898709,-0.3717511693623638,-0.09937505499897775,-0.42640800971330883,-0.23168609053268024,-1.6906851675678196,11.697597237735101,0.08610061372119984,-0.25695001884146607,0.14065068986394252,-0.06489110939263389,0.14617308537877632,0.08077642083332356,3.333812528933511,-0.2584936287012978,10.222605310068113,0.10647575192969577,0.4254183788818416,0.11360793156532581,0.0016774298747805703,0.27797205220365834,-0.48195883608426754,2.9987657707649813,-0.3449487068982965,8.735869014002585,0.01431599472055622,0.4378564264502388,-0.010472246959827203,-0.04319718162718216,0.18884752447085873,-0.593531233189709
-5.1728155146791375,4.00652717814229,5.99808487923837,-0.21097393681515522,-0.2989904093847618,-0.22175054607068598,0.15423483166942978,-0.25398083414275685,-0.5548620884697855,-1.7081832961624512,6.311717089483405,9.098027772453364,-1.0678403184683467,-0.6512480881280813,0.29410127512123946,-0.36365023225248616,-0.0906775445005621,-0.44132931830443967,0.10846239924891349,-1.169832912808674,11.942963807311347,-0.1667872481295431,-0.03726762001678251,0.21430824815358587,-0.0576201481940953,0.13511489582146524,0.015364049962333709,3.0412916210583547,-0.3127566695408819,9.873704148304878,-0.11323757129123288,0.554143572521569,0.2642629329779255,-0.004876054293435177,0.2650996858182292,-0.4925629350038467,2.7189300289267346,0.14715915497087567,8.915172114428623,-0.18839542733061576,0.524460032724789,-0.1268576996213792,-0.031833422669813254,0.1818319700475135,-0.6021991510188014
-6.623331722594843,3.938332402978934,8.771643249462668,-0.31644858362799655,-0.04974721400036631,-0.07633755592784341,0.15346562134305616,-0.2518341139093644,-0.5506915559242532,-0.5140099768122294,5.897862408598863,8.67748762658495,-0.6339842054399815,-0.9118631489218056,0.21158971995832954,-0.3497047235251551,-0.09423246745967585,-0.44143004114543,-0.22980348887423235,-0.7660482104893572,10.972354291304955,-0.4363165183130955,-0.06311544158275115,0.21464348928386456,-0.05429543777865029,0.13429291715172206,-0.04076839453921921,2.9424720678028637,-0.525345135456114,10.589155147666952,-0.3596517821563234,0.7069077671272566,0.34011987370328267,-0.009662805549299358,0.27443082646334976,-0.5011045288056767,2.8437756512194463,0.3244186194835479,9.195421615885854,-0.4263509048084084,0.5909439152808128,-0.12120073713321584,-0.022587345880722275,0.19104593473723597,-0.5987594987534147
-6.0543756348879665,2.4170259073964586,9.502363773017915,0.2999046310247218,-0.3752167762581029,0.19785250387195555,0.15487503123037577,-0.2509304675939678,-0.5452931808811318,0.4787344981080873,4.840626186094225,9.072565378644349,-0.8325220152717715,-0.5275870011486874,0.2637302461337403,-0.33088342240587826,-0.0880782967232095,-0.4506286878243677,-0.08906322493339697,-0.8974219626083534,10.399266318328694,-0.8196246133818417,-0.23569000376682422,0.14710168894700282,-0.06414562389412105,0.15326339483158316,-0.09083379305045126,3.0899496624864105,-1.4599668647993942,10.24271192246731,-0.7494272818497062,0.8130958520934384,0.38768801294572697,-0.0293268513153181,0.2962469197017287,-0.5062877390972121,3.0289591810339362,-0.23577023955799092,9.056684376439536,-0.8206373785199815,0.7190507562745124,-0.0361085906524268,-0.028915826665721487,0.2149594164618236,-0.5959203265568562
-6.974314660229456,2.225742856490367,9.287784199433176,0.33998429560871735,-0.6622252080435974,0.10482305470199907,0.15096955985654917,-0.2562656210920222,-0.5471121334644661,0.04066025807053045,7.093873538910779,11.33146219897296,-0.661045794972909,-0.24114908874251323,0.398088703472342,-0.30929271521115337,-0.08684773592557074,-0.4658577580505821,0.8303768450957124,-1.552653546275593,11.292891880303499,-0.7403610680425873,-0.2655590596528834,0.0813435064164049,-0.06937961874135824,0.15538442257324642,-0.14384533343797623,2.58551102075349,-2.6220260331353265,9.452384408950255,-0.7247240727063354,0.9076851003256655,0.24000374290358253,-0.03752196332767161,0.3053507891704621,-0.5160774077229239,2.8504292601777204,-1.4634235604349468,8.525318586582063,-0.8543787845287755,0.8137145097608611,0.22603482366390792,-0.02440613094943493,0.2259856874200964,-0.6006029662292266
-6.488994223550524,2.7487182163801624,9.666462723005493,0.16719154760221552,-0.878171915422257,-0.030091208616143592,0.13566351126002704,-0.24591210012457798,-0.5508079961428666,0.2484557036832239,6.595783349700586,10.865117247678128,-0.539641964745096,-0.3529165369971555,0.5144235659541543,-0.3002970127252007,-0.06981700929489981,-0.47841822170506476,0.7702293796637476,-1.6978844741790486,11.322398463863985,-0.3893138246882489,0.09197212208981913,0.11457913949276632,-0.06467301128338572,0.17159617833941157,-0.18185210929721965,2.5660108369558605,-1.7277327165970477,9.743877221844203,-0.35661407549727525,0.9845033245814842,0.19020559894290404,-0.04011027477273795,0.319060118816594,-0.5228742200284848,2.403773471955896,-2.1497329384862907,8.304616895932178,-0.4807060249717276,0.9120118072986896,0.2854176623277878,-0.011464592473252678,0.24130324723079766,-0.5980078721432477
-6.097474439893916,5.594037169508166,10.413767917343819,-0.09596054780834051,-1.0612121339790952,0.03385722520907638,0.12487370464902586,-0.2524968124072625,-0.5485663122999802,0.5850282726560129,5.5096558638950155,9.45950695310117,-0.3294353439566236,-0.14245982513312533,0.46718466651659324,-0.2815504422141403,-0.08152817008146171,-0.4915819982568425,0.2852379277677375,-1.6120220809312418,9.977618381175535,0.019766119972703753,0.02428568972463368,0.12540222966448206,-0.07023230236229568,0.16539386133388245,-0.2265878208089736,1.9717658745165088,-2.3934037388858522,9.915468051131292,0.03702353425117982,1.0822119750686714,0.11513880207174648,-0.04588006221158426,0.31279507599591655,-0.5373499340822234,2.0104100805925063,-1.839272206594426,8.650242433237018,-0.09601148736609741,1.077648646517124,0.28015190273235757,-0.00137259715876876,0.2357211283748654,-0.6035077021088628
-5.428168647217881,4.153223933736363,10.035134791295544,-0.3327003531990895,-1.2293364631930177,0.32342028030920283,0.1029552499316794,-0.23898361059794485,-0.5493628401803996,1.249075953693023,7.337893405971776,11.571713520465142,-1.1710946463961538,0.02567573718585572,0.44691627137331985,-0.26969164955246155,-0.061003703265249024,-0.4990293035760502,1.4890268459781977,-2.420694914239432,10.00886925337126,0.4465924223012235,0.16436706941275012,0.16366575846459075,-0.06756097957224881,0.17182143754482684,-0.25658113625765117,2.298039236443588,-1.523541211265767,8.921607008594059,0.43384782847007125,1.0834319319519055,0.09292353489167976,-0.04658163912168063,0.31159659222613456,-0.5419996520836501,1.8682420707043634,-1.1339534133916052,9.100025308493917,0.26777420861452966,1.1320579668046802,0.3603789614515761,0.013213982458521045,0.23295973404029474,-0.6003502036690427
-4.738056599476456,4.274585408641391,9.495718162437093,-0.5152577514184534,-1.353978223313591,0.436013438708912,0.08309897603886034,-0.23215880720097073,-0.5624317225995662,0.9165135234433158,4.672295497869312,9.936640596275467,-1.6502375432670535,0.14211463971509522,0.2955326950450126,-0.24982355465779782,-0.04768916975174011,-0.5248963869751172,0.6926041048199837,-0.9281116075838235,9.650905225865637,0.286900095773001,0.37351247986682784,0.17984619458352552,-0.06158040823916852,0.18415021222816283,-0.30362338659006477,1.5065140275753983,-0.8608902430927777,9.10663856054012,0.29453079605366017,1.0925843356017626,0.1578069897173497,-0.04711200869211074,0.3207289477577946,-0.564426114679479,1.1754540941304534,-0.7794951687085381,8.809606969238583,0.1412799027908355,1.1139879741796508,0.2793912849401888,0.025421906701312932,0.2413651771190915,-0.6127406636415926
-4.755279484776517,3.233642795913872,9.822820290624831,-0.5940546691752091,-1.4374438233098816,0.45142193241512074,0.05475499707369614,-0.2140962348632955,-0.5544494625832188,0.42364896916250727,4.10901234399599,8.975190144949918,-1.7929856508191537,0.2617299516085539,0.18017371514346942,-0.2384767133136387,-0.022790055041223254,-0.5338569717296409,0.33040543945914314,-2.124801439753009,9.621465181101543,0.35253856904453285,0.3520076053161798,0.21702860905788832,-0.050405014386987954,0.17517568361682254,-0.33359998637144217,1.1991834360867202,-1.5070333696137768,9.311010464288868,0.3466743325464914,1.1334686573696378,0.1702985553758908,-0.036059106257926084,0.31122717678820133,-0.5773222014588779,0.8322570796935903,-1.1695391159741677,8.649636721163915,0.20383658500351415,1.1666290606603749,0.2860658789855874,0.04517506876932666,0.22984169515581282,-0.6132516203489307
-3.9080128037905055,4.340611871860292,8.056818775360963,-0.3979777448102453,-1.5360604871032335,0.5264120640315227,0.041147012545512736,-0.20230341987642744,-0.55664358855185,0.33246969035255436,2.4628289907637146,9.330937426976973,-1.2877447809587141,0.28189421876286547,0.2816367168031672,-0.21144829821877933,-0.0019506849593407703,-0.5458290383870866,-0.26114512516904476,-0.6462807673714671,10.369642155095333,0.06906971952970539,0.32851632365105027,0.173941520290258,-0.04994248525963402,0.1955067781023321,-0.35697650749473236,0.5404402399710613,-1.3147365938381577,9.991841708970417,0.09023254448475909,1.2350230963079154,0.19720174443654356,-0.03573049866635288,0.32662611686689164,-0.5816483294624935,0.2819879599096652,-0.5106517962086043,8.783005736101332,-0.03423874325409241,1.2339873078315087,0.30406906212261414,0.058126560003719754,0.24565261452372006,-0.6111390045421702
-3.607652525503278,3.4174239288865467,7.968574344011886,-0.43199720707138045,-1.3037772895190427,0.765409701939363,0.021215596090998375,-0.18875679273491,-0.5605937485746108,-0.3115632872209835,4.092153567122396,8.912202556396117,-0.47013419342300616,0.3071045537424143,0.07190076832810587,-0.1955008471310075,0.0038632715704702775,-0.562126704455349,-0.26883915747746445,-2.1670041015262793,9.359790526764266,-0.017734450107359953,0.28950609124867926,0.15125612502077704,-0.041232106924417186,0.19262528851927335,-0.3813377810254842,-0.042849674207766766,-1.7325007511282993,9.273706996029375,-0.019786372654543354,1.310445672518541,0.1664997021877345,-0.021959612706301125,0.3256613258911786,-0.5949747813626969,-0.4383094836328139,-0.9158648750299356,8.666794934803402,-0.16886198986332018,1.3042684387525942,0.4763659687165639,0.08382828079731026,0.2431837291690077,-0.6151087359378195
-3.1902072143691798,3.1106035982477844,9.340986711096894,-0.4019773008893937,-1.2214281538191278,1.015581958511313,-0.007253122950755888,-0.18344022416796754,-0.5679136365378692,-0.0120252620050385,4.639447551697381,8.475731147312123,-0.24160039394430824,0.17583748703213015,-0.1096870371383078,-0.18999950263437265,0.0027628904309860572,-0.5781876308320313,-0.10957678276954388,-0.7510631005225761,9.53849243174299,-0.03579999606177525,0.39390389634901374,0.12366853026151105,-0.03303096502125024,0.19559017445698623,-0.400558583320406,-0.13917523036641355,-1.889329168642383,8.876919098279512,-0.05042368028626783,1.3489373507473266,0.15604047993124182,-0.012875567681053041,0.3237107862973715,-0.602483082120675,-0.5221816878554097,-1.7258344916065864,8.447090132080485,-0.1892204860038739,1.3327799186310334,0.5560580865892647,0.10496974284355544,0.24135555756282265,-0.6096277888366777
-2.3857231661442637,3.0023745872275494,9.007977805940842,-0.45309310175027045,-1.180958397278208,1.169883687104579,-0.01950095528176027,-0.17323410426503802,-0.5608349724888675,0.32649674768858583,4.668941897961172,8.785959468631216,-0.9497672758473551,0.21294272894933752,-0.1491982179354126,-0.17225128907702156,0.016528251335764736,-0.5825897948094234,-0.30214633807464036,-1.4721469942007102,8.756654043886792,0.17858475282036257,0.35275889488273005,0.03467049019274212,-0.03049588564236768,0.20659661207143237,-0.4097859940938608,-0.4108856657139562,-2.266063906394285,9.151809827134187,0.17383691348544178,1.4006564885193096,0.042037207371710024,-0.0021439436320343074,0.3343902557636949,-0.5962506984524155,-0.8095764345327519,-2.590351485186898,8.126316438754293,0.04180017996134144,1.4003177022760052,0.6285383978697314,0.1240408594795878,0.2467713480715458,-0.596288630376697
-1.5370257380652024,2.981311023738738,9.425539206927738,-1.1272464159627338,-1.1272352784469042,1.4288312491154793,-0.04143462521643955,-0.1523990909685473,-0.5805844059524279,0.2962245471194517,3.2448437431725807,8.518242568693182,-1.61506455860096,0.38383611700073184,-0.18788655929280146,-0.15827331474834933,0.03442680063736383,-0.6092813458989575,-0.4178698257873678,-1.7212330140152572,9.179242145865004,0.8283265403805263,0.16391395188374558,-0.002637603283516322,-0.03198946245395579,0.20425058285138967,-0.44105430132668993,-0.6061954317466185,-1.4833489718783044,9.456884671747622,0.810909309229431,1.467729726594366,0.013516048434166157,0.00849567891695442,0.32663812385536894,-0.6181767322910049,-1.3070532953690397,-1.8468301577186854,7.977493668670613,0.7054022659802284,1.5336373420666944,0.5838962836785013,0.1461854905348804,0.23536176920937837,-0.6077455121781714
-1.4320041314515777,1.5568242761170392,9.062264719835063,-1.3375888539282226,-0.9585753174318561,1.5006584662628604,-0.04925760080933291,-0.11202162934729312,-0.5664824228331238,-0.585356131039439,2.2630445727881425,7.862847720575394,-1.6756079698755713,0.3786876369216081,-0.14484820093530698,-0.14370725580909863,0.0733923184911579,-0.6063988415426853,-0.5730003621072551,-1.508083055428846,8.878988250814974,1.5178896682785201,0.0673117251519172,-0.0501533648262664,-0.02721221319604653,0.18746689246459516,-0.4667047767321873,-1.590968566630289,-1.4444243985094876,9.072906934654121,1.4887900371365428,1.5308423649628486,0.05590234598766105,0.02227148511069408,0.30837545791113097,-0.6398792008676829,-2.298757761573799,-1.2248513166425254,9.086481911048812,1.3791616689640085,1.5978328545923055,0.5106584707912077,0.17404325672404333,0.21190256024713033,-0.612885364979129
-0.9505464232477906,1.8670920059982614,8.517784666544303,-1.2561280526170313,-0.6217432780744587,1.5462861445850733,-0.06302416629477245,-0.09818120684425742,-0.5759782905487445,-0.4926857096885547,2.421550979565392,7.552180561098866,-1.195483370258304,0.1498231015239713,-0.1323638670090305,-0.1371035196707822,0.08019013857964898,-0.6149644136228211,-0.35120351176971404,-0.4983489575455796,8.40837620443578,1.576226351847355,0.14104234345203467,-0.15293202735050843,-0.017321337814979996,0.16822605830292012,-0.49134906560322456,-1.610506125827405,-1.2966471313759467,8.208095756953371,1.5617290121558363,1.4964382834255399,0.00034593088815066536,0.048917450845444486,0.28905547562524275,-0.6526995482707555,-2.3215243298602983,-0.7975831526472463,9.278084289910767,1.481421176067942,1.557430450873917,0.5038235851566922,0.20995264876691383,0.18573746425365628,-0.6181571021466781
-0.676579895887572,3.618983630040854,7.76269353783692,-1.5398533029507384,-0.11099382076425668,1.9383006313536226,-0.06956635690220628,-0.0667349476481694,-0.5702779850632067,-0.5134071928848294,3.4216925441411954,8.485523664255474,-1.286657472346223,0.07111582668968507,-0.12378555472619242,-0.13436048168368211,0.1024459435402238,-0.6134645139067803,-0.6517843849180915,0.11147944964288735,8.044580575154262,1.3714905415973468,0.2617519580561221,-0.28828668834304844,-0.019715726509473744,0.1584961808735638,-0.5016485327733933,-2.1738940828339297,-1.1063429611441293,8.344991089212707,1.3792897460348907,1.3992296983083032,-0.10517420532174893,0.054990046626793986,0.27488472819779575,-0.6549114514837919,-2.667319542274529,0.10727877976387576,9.733785820191944,1.3202507146405744,1.4281489321121639,0.6104991698044634,0.22658618693627147,0.1672791827772138,-0.6090326209063589
-1.462606075905541,0.6203313250670531,9.174980219746674,-1.9818737257228607,-0.0017935621394902478,2.414348689959725,-0.05841141268503469,-0.024995041140694466,-0.5723137525496951,-0.4589060620619991,2.1239969064135664,7.80534989942202,-1.5249947843579161,0.07025999086883196,-0.2832523662359502,-0.12722027467558486,0.12787465562096112,-0.6153821251281917,-0.694239831766182,0.6616237612267855,8.65576971802724,0.9786463812242001,0.27010835880883327,-0.3945952478722671,-0.019397113480420995,0.1404791802751253,-0.5187889577148463,-2.3206904921038265,0.12598277947287426,8.980724828572368,1.007566836754259,1.319554456745939,-0.2472974069494994,0.0689250075961194,0.26217709488810753,-0.6629171769006346,-2.927285368138223,1.0530990221299674,9.708784833500316,0.9704256377578977,1.3096443735450936,0.8371287441540025,0.24604831463411656,0.146465548351557,-0.6084311090877821
-0.31721055076737165,-0.3277960312629772,7.925493180208416,-1.1389497380645557,-0.12185719218231174,2.72233595022898,-0.054598842140834616,0.002645856828578091,-0.5772937820975754,-0.3292799052850811,0.7128165591864282,7.985111731522551,-1.276641472634265,0.12261803081988813,-0.49613047810839855,-0.1187944042836331,0.1498422124204205,-0.6223815398466204,-0.7665788700382629,0.3966569461641418,8.227732604034273,0.46889734968913466,0.1629887124958139,-0.3579103236139777,-0.019649141095169374,0.13535497369082108,-0.519537608476402,-2.53865027976043,1.025385477410384,8.957001048637103,0.5154675553982615,1.2934778778845897,-0.2473204242999738,0.08619475531283649,0.25696671556187906,-0.6567034816170085,-3.1814605918188334,0.6168253293916487,9.077083068794547,0.5054103420140634,1.2731815802407525,0.8008206799021165,0.26675177246029697,0.13038192055432266,-0.5943245154550301
-0.013234232154080053,-0.1792239909449197,8.709936144138261,0.7917458743383479,0.04586489477109111,2.7401109695305848,-0.04948878510999236,-0.0015248639789835821,-0.5770476721893804,-0.4819494049494869,-0.5125198696143616,8.139114133188716,-0.9010866817900733,0.15592922717514504,-0.4952173327985575,-0.11770528538274151,0.16548810427585184,-0.621313947195902,-0.8784927256621037,0.21790469385872166,8.400867112097067,0.3529566943523813,0.08687926633586594,-0.3328704466512179,-0.01367138403781026,0.1361191063756556,-0.5358514709805168,-2.9448495947481077,0.16434344580559676,8.429786841242764,0.39709965841146483,1.2530145813632725,-0.2260539213540009,0.10211106853811355,0.25450321786332836,-0.6639167786027221,-3.5310048060837054,0.29914233690009473,8.892898052838946,0.40770819767649036,1.2256046630156163,0.7098047595464304,0.28940619442008336,0.12419247813783432,-0.5922838071855995
-0.14429838934352596,0.5524288841690885,9.278648940442006,0.3794582052501773,0.2935912819802722,2.5594913575164684,-0.0458550961397113,-0.0013278041425243666,-0.5743196971366878,-0.5628225071034239,0.142604094107312,8.521023479946034,-0.6351049882455412,0.10738684435692851,-0.2321119085908603,-0.1219575349751395,0.17863739985754062,-0.621482434908602,-0.7505372293261436,0.3278794542166634,8.599165100898343,0.471811703115069,0.09014617354456943,-0.3735320800211547,-0.02414468543366126,0.1342054404025029,-0.5400814300128081,-3.067370567159258,0.17400497475232157,8.401741261629613,0.5290975031190203,1.2117473060446349,-0.23923705855027605,0.10652013763680633,0.2503543777248202,-0.6675641515186791,-3.610908100472896,0.12807573511937637,8.840770224167963,0.571818761816934,1.1662256253160368,0.68711690093489,0.29454868672560236,0.1145294811044649,-0.5808223626335034
0.37342192745183034,1.2286981029200184,8.381951223919696,-0.7690283968739842,0.46055937133738895,2.4374600312402537,-0.03400468095195284,0.0153204744074568,-0.5810629310937725,-0.26410250089186776,0.8491674773494884,8.206967728598704,-0.7962167048356699,-0.07633994930148023,0.002111996987504035,-0.11420187892978473,0.1918185116133076,-0.6276640292165564,-0.23779888933947357,0.5175275235862905,9.264626015388508,0.6170489763205598,0.15531424122056678,-0.41342326633104326,-0.014807964707820885,0.1259146132636821,-0.5515145479358358,-2.8834854654461486,0.37962993681592594,8.551775549648386,0.6936610357362771,1.2129835407281921,-0.24181731092867045,0.12919746454894332,0.2388097912907724,-0.6689047909880615,-3.3808201934007505,-0.3756609654961457,8.355302711232085,0.7842206127370701,1.130211976676357,0.5881245617193832,0.3215151546511455,0.09755342264078586,-0.5758951313969568
0.2370646472346774,1.390211161520069,7.6968321177436705,-0.5438321074532781,0.7066556263759652,2.391856631508067,-0.014169787287402844,0.024077499911461547,-0.583667784954972,-0.11925794118723768,0.22153416378317942,8.15605905504746,-1.2501057790585852,-0.30388787823797364,0.01722369403904249,-0.12145158740416154,0.2086595121138954,-0.6227661742599708,-0.3415032080255269,0.8394556387029706,9.320162405731086,0.9100652130043017,0.15178236478836077,-0.44913803230486715,-0.013045492879928035,0.11983449726191751,-0.5612849422196388,-3.238506187295521,1.657892999334527,8.8637941399521,0.9865371323945391,1.261418886653318,-0.1751634869773481,0.1470306083235533,0.23948833514251372,-0.66998662986486,-3.6031886961995476,0.35843760724957974,8.395111904061256,1.1116366322154745,1.1431343656195596,0.2821119891412003,0.3384457748760714,0.09058115005026122,-0.567858746717093
-0.06854320356348813,0.7231077763653087,8.759837407984309,0.2798167117595154,1.163144003894891,2.171241173832252,0.012351837591852469,0.020961493227811448,-0.5760968975491578,0.017241763475656903,-1.3691549847112563,7.751962663907932,-1.4503238381527528,-0.2858611516803414,0.13017427509633855,-0.11851918074171608,0.2285774500003349,-0.6114738397573986,-0.7557279890675639,1.424943224851045,8.254328538449144,0.9921441141554804,-0.07058291788386896,-0.4320363307253636,-0.015223541832056597,0.09765449330876289,-0.5721079489368212,-3.754906249190276,2.1182501052205094,8.764642136374887,1.0598660125791644,1.3069951958754198,-0.09552717659973056,0.163579009989723,0.21503388879847157,-0.6736279660621199,-4.02029112235911,1.3223924828221465,8.344728717781663,1.2057897222942504,1.1702563746800996,-0.03942506933594927,0.35688335344943983,0.061453751279454155,-0.5659018664966261
-0.6520056333107574,1.4267723399629486,9.621037905181886,0.5719627568016236,1.503943813008591,1.6826332047401378,0.03560744198888628,0.008068236487577847,-0.5860216012605581,0.37218733066754056,-2.0242373562368616,7.421459572218579,-0.9668305952254599,-0.2847241388144396,0.29128487867783076,-0.12542770269432102,0.2435988799358656,-0.617542466630285,-0.15933219591993128,0.7977831488803293,8.368820016866591,0.6130450941441892,-0.22024593468074122,-0.30615023843261796,-0.021032208408256918,0.09403250834768667,-0.5807048952870243,-3.481095140692818,1.6246001959150798,8.609562776084307,0.6743953897239005,1.2798735138818542,-0.07292803850964379,0.1811595725492025,0.21424616388033751,-0.6742300512268419,-3.8023565504688963,1.724076993994493,8.622749388236688,0.8476035361167918,1.186548427821879,-0.22761162258052178,0.3669591578710847,0.05351491992835457,-0.5570209035400793
-0.5299918262438771,3.0343246096567844,9.579426499603086,0.8132323671003081,1.7077148064303704,1.177556265313854,0.0754199039182445,0.0045480911858259854,-0.5885672332406283,0.21120130881524013,-2.0780430191841663,7.751744694193475,-0.2870503797376175,-0.19396733237185754,0.2598429819372364,-0.12020100982912231,0.2602608606676675,-0.6157217165689255,-0.24433105758799806,0.7064723085345203,8.209771948750454,0.2359624511490442,-0.3220078501736556,-0.18573326952454014,-0.03125285640076149,0.09480489419881229,-0.5851692895024015,-3.8283046187241356,1.041259635177453,8.302325559223245,0.2812188395360262,1.2336744206790642,-0.08353548403634438,0.19134573385048265,0.21295495911862078,-0.6658564697823449,-4.066901916583625,2.369723795924815,8.275396433769087,0.43622550520239106,1.193480166767286,-0.20115444485531675,0.3794122898007682,0.05381439927821915,-0.5431228975586118
-0.6258696971558267,4.612346775339175,7.771805678069311,0.7614230928737052,1.8603927720994136,0.9434752072778069,0.11082112496612828,-0.013367108178528635,-0.5715662325331906,-0.023786392854527286,-1.4495806474491413,8.49964086737739,0.04042857317150876,-0.12100375152808612,0.003857580257772034,-0.1163272194096093,0.25598882435626535,-0.6068572121530119,-0.11892609188384046,0.23551697422371703,9.04083589545849,-0.01897746153351572,-0.37911735749573233,-0.024550359227454455,-0.024894169718059925,0.09698749271460146,-0.5858508827756288,-4.309183085317304,1.2733347705888407,8.325984483813953,-0.05868743609024564,1.2164614068335609,-0.08801940299540592,0.21548892227786967,0.21627082019391647,-0.6607744592659229,-4.557810447067011,1.831999796373482,7.910277372843529,0.07308192103738205,1.2206827194840888,-0.12426848195908596,0.4031228962888176,0.05653608682849397,-0.5302207530140972
-2.873441028741804,3.833743648554033,8.731872130931421,0.8108035504429411,2.301238418096703,0.4564634710049682,0.14700805442418444,-0.0224238829436219,-0.5793488337212278,-0.6307856429297148,-1.0605904795153154,8.96915220433527,-0.07729305826511224,-0.2653685430534277,0.009207898822589173,-0.12265358848883058,0.26412211490534276,-0.6182215908917623,-0.7116085562178107,0.9363033407153126,9.20792026355892,-0.008882776809831674,-0.3204993235174726,0.03218668586526272,-0.03663566772751294,0.09286204938985772,-0.58423707210881,-4.91356614055259,1.3985655557543393,7.626985212440017,-0.03343424153773507,1.2108774602506098,0.0295849753731387,0.22836090302494344,0.21131705625752548,-0.6541052431568534,-5.283114100181281,1.606966326023878,8.091224276742183,0.09097500683367925,1.2153873992797097,-0.2353934083735473,0.4145685011000862,0.051944972773516965,-0.5154173563687844
-3.712469716261546,3.898768959509134,10.332680692628946,0.8250209235699373,2.623371365244488,-0.7480268041381106,0.1897979708625008,-0.02521361257951678,-0.5632965900537366,0.08729757519402923,-1.6038782769022175,8.891377527894056,-0.3861536545611779,-0.39686969109308656,0.4146512792814277,-0.12769667531930862,0.277827836016559,-0.6113212896634233,-0.5304595667303459,1.715947184034675,8.720282980822166,0.163083799525908,-0.2671348434461437,-0.042172094033824783,-0.03750317133420527,0.0926651337564813,-0.5996242477341711,-5.259247434942989,1.2047886681440265,8.05335996023078,0.15626489636425694,1.1690673246154695,0.06988147569775971,0.244268802964388,0.20519372590818308,-0.6618234353641933,-5.536283698992208,2.0445805773130985,8.154078516499654,0.28201938341370697,1.1526758857259443,-0.250775361076128,0.42839804563867095,0.04941454680535932,-0.5108063461459619
-3.2708011161300403,5.599047706395343,9.020068138830245,0.12291099135826933,2.411888977037818,-1.8103110994814666,0.23609302702596766,-0.026940305435628836,-0.5550072206807319,0.3609793996895281,-2.989845600103449,8.256932634081183,-0.4090579812593747,-0.2742731551775508,0.37603020724797653,-0.12154209385693054,0.2734594233429185,-0.6134262739236326,0.09260317034581565,0.8461669283201552,8.665127950794561,-0.25557302285065264,-0.3739348498891664,0.2097572370321137,-0.04705338866964348,0.10243390258780626,-0.5920954783549147,-4.8369430607643125,2.1439024465195926,8.279815937208042,-0.3375996241368355,1.1289089443494953,-0.04578432351116592,0.2548993675461379,0.21459736775032445,-0.6429018469589358,-5.039956471895444,2.381022536752272,8.652907357891335,-0.20980173077311828,1.1491972150981578,-0.18464870348107676,0.4363816841418977,0.057965407000870335,-0.49127980530620685
-2.985637791339229,5.145823398639857,7.064036465157548,-0.5004715138845925,2.542125153910614,-2.2523806414878016,0.26281863856857335,-0.0035992254813941756,-0.5351338165374112,-0.13030206806545824,-2.7281045671200936,8.834878865340903,-0.2787814498903754,-0.16342358797435216,0.27819376628998954,-0.13120122477633384,0.2849233260290886,-0.6072701071711925,-0.05779624026035397,0.11022341810530384,8.480866200656449,-0.5754063593645077,-0.37825316560791206,0.43428458194308067,-0.06093088807514439,0.11589940241278274,-0.5926429349412123,-4.97719158048266,1.6270437670897508,7.584484471873808,-0.7192148157221737,1.022929489967053,0.047413308653419146,0.26050663339297325,0.2313884379007428,-0.634485132937024,-5.261199135613311,1.403304180432923,8.80299501372023,-0.5976091255816466,1.0880057208515415,-0.30173844652754755,0.44175535606634075,0.07680718227859462,-0.4743711793291444
-3.6886665323324026,4.1298164828588435,6.718201662721896,-1.2179373314361952,2.438491758680331,-2.6403317531553085,0.29497740963047064,0.030979907220682223,-0.5172566691598044,-0.1269645717060396,-2.028788429887224,9.34875929376151,0.11873888473554468,-0.20284720090878444,0.10562959653539471,-0.1338425095425939,0.28001306967493206,-0.6079725566853839,-0.26754321717707497,-0.3402220443378885,8.621937894212012,-0.5038435638001357,-0.2501178067828173,0.5540218407006459,-0.05794223943732019,0.12323199293469077,-0.5982166614825539,-5.469462745076982,0.571402043238005,7.700742618101348,-0.7434904754730243,0.8923104384572247,0.18378675139185605,0.27591660538414087,0.23574026907371443,-0.6363016470914915,-5.751531118429937,0.9979517899522817,9.207401298637695,-0.6399919867555562,0.9482274488184519,-0.4066321317910405,0.4522284466970796,0.08358480390000939,-0.4716699581613648
-5.041933508728524,2.11841322294806,5.593926674376531,-1.6802876477802482,2.192460187721322,-2.900419561237495,0.32568013402586216,0.08478447369114668,-0.4940235644893993,-0.16023615800579227,-1.6252715466206276,10.223093132088104,0.3887838871457834,-0.17722013593418723,0.1321964229367911,-0.12529955063656095,0.2839454450754042,-0.6118542940334786,-0.24528712321789697,0.027339914075595887,8.709910904680703,-0.20751804021777276,-0.12484700454775038,0.5065592501895794,-0.0523179610647379,0.11883090771772722,-0.6011185975088522,-5.437593756155021,-0.08217715679218307,7.453072960302918,-0.4785828570357839,0.7100778218706748,0.29653408246416574,0.2966265975711439,0.23613446497631768,-0.6305264669034242,-5.712288424041272,0.5727204762411607,9.765992613551948,-0.4154578399812741,0.7493652823806506,-0.43422113813431723,0.4691830757831967,0.08881334469087604,-0.4630102193228987
-5.713244309181089,1.2215113652810472,5.884319077285419,-1.2406688820263376,1.8351391452141381,-3.4790121698798693,0.33269952761335936,0.132102361207599,-0.4728368576276859,0.1273604795334205,-0.9748379415457062,10.688761378069488,0.44922201574823856,-0.22144167306283383,0.2979671195421104,-0.13352143133730202,0.2753208286443859,-0.6132930153965614,0.07197503859663003,0.41283581559002136,8.889187163034544,0.03342235011817174,0.12713470564303345,0.39320083834427105,-0.049443302952901974,0.12489825054483203,-0.591070338567203,-5.248062877114587,-0.29790696992650384,7.509163402806,-0.21438810199626382,0.5023052483051667,0.33471175351117327,0.30142195063960986,0.23923721242814408,-0.6177809275974969,-5.43638676340989,0.37810147932770855,9.810364253269752,-0.17472721961165902,0.5185920022752576,-0.385544454888043,0.4713381248323647,0.09715638104757782,-0.44529819005049653
-6.069779303230001,1.7486936080535473,5.5418099754415415,-1.1589113144766339,1.43440526893521,-4.088291256093914,0.3359229583513642,0.17397119284634557,-0.4637247889007953,-0.13489035893954374,-0.7755373183275817,10.64192113933083,0.1585898481775011,-0.22332036540281755,0.4819848363718398,-0.12631447444373725,0.27109701068686226,-0.6256463038735622,-0.43005947368145586,0.7041363588637689,8.71415552354007,0.08538808821851573,0.39765829014680765,0.3147686614720473,-0.04635531533624292,0.12983299064132467,-0.6115427425701389,-5.713082136268783,0.12893444748745475,7.463331281158343,-0.12746456447610158,0.27572433934963164,0.3009137827752775,0.3042415918321744,0.24417758897828626,-0.6331196286209865,-5.790896815562158,0.7400545132138543,9.821891710431238,-0.12195359043637254,0.28684411263759885,-0.2927917468728004,0.47236958405651386,0.1075774823777494,-0.4605491650991685
-6.916603312681615,1.188499505087589,4.882155728605781,-2.007061042410799,0.9220438683505844,-4.114187304000143,0.30510779333453997,0.231152916626451,-0.44013471536293586,-0.049765530976651644,-1.3524092523997926,9.873090980571385,0.1037699352679355,-0.013272196630430482,0.27198736814435276,-0.1365407239462241,0.2634920378206963,-0.6214954185682608,-0.5820242726125755,0.14026281461991286,8.440817413731548,-0.1122850982393923,0.4673639219686704,0.40873210978516555,-0.04174169016631325,0.13517633315803043,-0.6061233810265106,-5.867876192500313,0.7129141071274204,7.65286268251226,-0.3443132041055371,0.0770926477087751,0.24066927745939948,0.3020005298958879,0.2465963810919257,-0.6262900406313106,-5.946951418837249,0.8393323819155157,9.522422692623536,-0.33289590173501665,0.08449487498386997,-0.21323632325542088,0.46839796559716024,0.11632078359794051,-0.4553945151026773
-7.0883471115677485,-1.2462279361863184,4.766264177265874,-2.27346121888614,0.40042717456236643,-3.679938576489796,0.2888780351206073,0.29745205944829206,-0.4077258269153756,0.08790692753636503,-2.055620445925411,9.589455937688358,0.19948841326537037,0.3064764120815954,-0.05445542925601634,-0.12221723634467219,0.2733753857019431,-0.6210001877266901,-0.6655701825921365,-0.6063671775023834,8.210212577966667,-0.3899211576550351,0.5195990806606281,0.6219682432653513,-0.026053528613515488,0.1410144552167247,-0.6128313851947493,-5.744822556350824,0.6671372984034337,7.595991032778524,-0.6685158733189284,-0.11763407991606643,0.27828607130780186,0.30721426649709144,0.25369495332965986,-0.6345198493677845,-5.94281067076136,0.48773667051480474,9.565070522087648,-0.6564485290298526,-0.1140652874331582,-0.25313148062485946,0.46931138629824803,0.12447389542289573,-0.4643232596500703
-5.924190772919164,-5.850125795577575,3.825964727074113,-1.6861431052306144,-0.4099312091830986,-3.498756824680867,0.2515609255260973,0.33701296888351606,-0.39834620697801487,0.23924136768999668,0.26970360994797854,9.34799170319614,0.7511684917889041,0.4763757858535265,-0.2142559140117678,-0.11373204967675571,0.2591807805229403,-0.6305543604811907,-0.48035889990526537,-0.5436184658293296,8.251021309163017,-0.09192843815340526,0.5464887169656544,0.6133166809552046,-0.01851717545705499,0.14317619979329055,-0.6074005056631451,-5.501055010126861,0.595283539734495,7.575948573371215,-0.41276746494331057,-0.30603477758197445,0.450719064451044,0.3022989909654895,0.2551552024399349,-0.6296689136864568,-5.898053421743315,-0.7594851649392343,9.540745409631691,-0.39966092518781665,-0.31155317623635337,-0.467055690038199,0.46565048131079195,0.1371582882147923,-0.4622942640429533
-4.164979828500447,-5.266711058644911,3.3111751624137598,-0.8828827576383481,-0.7650870507659305,-3.6029116082702046,0.20501990218345642,0.3722923451731069,-0.3954700475879231,-0.6607587872063745,0.9049363501826324,10.213098006748183,0.5644686674284021,0.6207250608798652,-0.20630822251498251,-0.1055666701082972,0.25402406790269183,-0.6394723960527261,-1.3090166711040885,0.16449750924141135,8.278201907453209,0.38896638748461543,0.6508555586449088,0.5159803261309405,-0.00729615521647874,0.13241285721430748,-0.6100381601681985,-6.027532027334953,-0.07017482111479872,7.304000078494995,0.03990551244917044,-0.5313302929079847,0.6712223058186344,0.29816690733758244,0.24567572939155793,-0.6363326995186304,-6.476400346524843,-0.5794404945213405,9.532892214176332,0.07530628666832137,-0.5126498396843274,-0.75426273123618,0.45662461688431943,0.14197169781396396,-0.4758312436316777
-3.433836722427702,-5.596065018355818,4.768795800578933,-0.49498673021334183,-0.9392256798539118,-3.738989770104708,0.14132101172958014,0.39028677926692923,-0.3920206914758137,-0.5789822583177099,-0.11947647212886828,9.963499794471517,0.5798304744382009,0.5320984979027719,0.11618537395208064,-0.10493120156840893,0.2390932254512225,-0.643464452843932,-1.4000579925133483,2.0779858604921246,8.758545162381267,0.8057792982484967,0.8309343774023112,0.21584573466991056,0.013481381091010639,0.12505333024741147,-0.6162592723528879,-6.209998434682791,-0.1541993695747831,7.852512892836346,0.6065095090874247,-0.7858399038614994,0.6937503061703688,0.300146033569077,0.23642396634405058,-0.6436828294407874,-6.3638547893298725,0.3058045230637738,10.069541161425281,0.6728899021466302,-0.7266425890184347,-0.6939798823875838,0.45657795506340926,0.14648311280106105,-0.48628248865266277
