,acc_x,acc_y,acc_z,gyr_x,gyr_y,gyr_z
0,0.2514373186226934,-9.438291087419294,-0.18934504736661448,6.812477608747659e-06,0.0010819671700864,-0.0010638266763091
1,0.18196187637341182,-9.431922645874264,-0.12119910652070726,6.812477608747659e-06,0.0010819671700864,-0.0010638266763090998
2,0.1910391603458162,-9.461277360841972,-0.1075583661466242,-0.0007865939956011506,0.00026499726233966626,-0.00026939824890616045
3,0.18944499537724058,-9.464055870175525,-0.08688192502733005,-0.0010392913543917053,3.71981213402764e-06,-0.0006017248148616337
4,0.17633946845098983,-9.45444712732927,-0.10456311191614939,-0.0010411056916885466,-0.00038091579587095904,-0.00031668316495772397
5,0.16641851873459712,-9.445206154509838,-0.17496184226043723,-0.0008871993042665592,-0.0007452010450478183,0.0010520914414169134
6,0.19430654836987304,-9.436348870958074,-0.24216214426148958,-5.272025155018671e-05,0.0009772563247118944,0.001056157108669384
7,0.12045215004562826,-9.460514356575786,-0.17717971317631856,0.0007871396206086267,0.0010748856610647704,0.0002640956633166797
8,0.13086771634014355,-9.460925421693652,-0.16776633346030356,0.00046254519525585014,0.0016761291220663314,-2.401193440230286e-07
9,0.16311225409493696,-9.45535789727646,-0.1959518625418319,-1.6558681445806724e-07,0.0017702807439457804,-6.121506634958324e-06
10,0.17309935873577006,-9.4553752381214,-0.21749922921578832,-0.00016246231120382653,0.0010777268755548732,-0.00017179012897278244
11,0.18190610493638207,-9.45143980810931,-0.16117471750833315,-0.000991571099393393,0.001082545696826928,-0.0010300323174666371
12,0.17914144355847467,-9.45169347472705,-0.16608159163459646,-0.0010310833726838804,0.0010867334186464863,-0.0018795448824149028
13,0.21080231841244051,-9.472025486371106,-0.1809705741263572,-0.001614843938048932,0.0004857283417751605,-0.001551258932636987
14,0.23068757318383232,-9.483466047401025,-0.18571681314799854,-0.0009621694477260155,5.963031990032337e-06,-0.0010717420284785607
15,0.21419834421365666,-9.4672520679154,-0.18060390973953247,0.0008848320508128304,0.00017306696190149909,-0.0008833507920029985
16,0.18631031457838074,-9.426951467560048,-0.20094003042641628,4.457979276691363e-05,0.0010311543262180318,-4.813608059768169e-05
17,0.0801335377776925,-9.458353369800106,-0.191250273883232,-0.0007904352310895785,0.0018939349134831978,-1.603798749548149e-05
18,0.0950585396824084,-9.458450123668355,-0.21259747257973288,-0.001625589932568201,0.0015547890159429622,-2.4893607887114662e-05
19,0.14702913821209415,-9.446492349497202,-0.21259375499948652,-0.0017137257114428993,0.0010781608728452426,-2.4304272332695677e-05
20,0.17794304008093573,-9.447448754986842,-0.18118791495505157,-0.0008773644654444422,0.0010783082455918863,-0.00018173104984364004
21,0.21121297017214208,-9.484306592785655,-0.20087721234078448,-3.719279555913813e-05,0.0010817850662969415,-0.0010199249897657147
22,0.2129555335248672,-9.459218842735122,-0.21319021115028697,-0.000784035828682529,0.00026616457947417437,-0.001070502584913058
23,0.20373720683376575,-9.465356743286572,-0.20883706050076414,-0.0010362766918415572,0.000607241973823378,-0.0010747103640676016
24,0.1771558101847543,-9.481217358179595,-0.19413735238922675,-0.00028844552059310624,0.001082204539666258,-0.0010673727585220065
25,0.15921921102894954,-9.481793282302444,-0.17879614374251734,0.0010488336849331465,0.0012512480560899104,-0.0008837537915242431
26,0.24288329993476357,-9.446864591382933,-0.17733612633325516,0.0010432215802551547,0.002109473400578343,-3.851775323083235e-05
27,0.19244316168663322,-9.419904338338378,-0.16373545314968152,0.000251417413249948,0.0013364815446102133,-1.6011053040046032e-06
28,0.16342210690593348,-9.423933366514024,-0.1507929173614485,-1.0071911147143443e-07,0.0010767832219537,-3.723440849788358e-06
29,0.11867936720328437,-9.442256003160272,-0.14929546203949198,0.00037202101518840955,0.0010746204320345098,0.00038147398581000243
30,0.05139562270088736,-9.466636600211835,-0.15298013078854536,0.0007061156413256664,0.0009012093780374584,0.000727884426475395
31,0.03231433926622488,-9.509901603199065,-0.12376511489333072,-0.0009520213468932583,4.9282835559847474e-05,-0.0009856207219957982
32,0.16602696906763142,-9.490124772947912,-0.1494636041458012,-0.00024403920584734626,0.0008232001580122202,-0.001065944228940344
33,0.17548166794781325,-9.467705202696513,-0.14325039620284455,-0.0011612079377427875,0.00048031074931225554,-0.0010757716786687801
34,0.2061169536103158,-9.451984103208543,-0.18133297653725647,-0.0009541685114941438,5.956599721022458e-06,-0.001071645936322441
35,0.29324119371036284,-9.452735132214245,-0.2653159696008496,0.0008832532699745351,0.00017663682077141525,-0.0010501734061389722
36,0.2237657514610903,-9.488150891990262,-0.24255836507213518,4.8532452776563444e-05,0.001038872006076362,-0.001063176758941699
37,0.20216573001123586,-9.476850498311764,-0.16446788339090396,-0.0007912902190822194,0.0002601615653878067,-0.00026469597641309096
38,0.14848268774520657,-9.482035057950451,-0.15748888079536785,0.00012185484529278636,-3.005460389938099e-06,0.0005954483236047508
39,0.1372828653071241,-9.477597948638152,-0.18354115304343246,0.00028680075019772277,0.0003845146371455489,0.0006802062428962264
40,0.17125939789636993,-9.453604483231247,-0.20142248769869742,-0.000875758024490495,0.0007317963288528676,-1.3045198378855262e-05
41,0.10667659242520669,-9.437894488577461,-0.18022926472628806,-4.0956619131884946e-05,-0.000992003041473789,2.9373829406557945e-06
42,0.0844270444824839,-9.468911230816406,-0.20592113552599658,2.4094450896621484e-08,-0.0002575926265496055,8.907372335899188e-07
43,0.15285669111312103,-9.45545051174393,-0.21953051012139024,-0.0005773949737805519,0.0006102600617117045,-0.001198905291118158
44,0.20030364422682728,-9.45150863893007,-0.2046339240236203,-0.0010293651239277157,0.0006992420806269255,-0.0021361091889811707
45,0.18647995325407812,-9.471188141265298,-0.16589309398762142,-0.0006942110743852628,0.00018363833818419359,-0.001959286269922693
46,0.21290019185592196,-9.442176591861527,-0.14023657722061034,0.0009694521608404423,0.0010397088069828057,-0.0010932027367727012
47,0.22907742067663733,-9.425798749763699,-0.19872807109223267,0.00026095752855584165,0.001085717929413966,-0.0018687738023159622
48,0.23580615738672978,-9.460780784131256,-0.1917181481252797,9.846466360471596e-06,0.0010842422449845342,-0.001529073279612422
49,0.22259743353956807,-9.477986907555708,-0.15222863795901043,1.8483082457349441e-06,0.00068877685063967,-0.0002956642134320799
50,0.18744228785117145,-9.446923765110785,-0.12369561987061756,-0.00017457173848745336,-4.209508398106544e-06,0.0008865534723212265
51,0.14291929317029972,-9.413510556068198,-0.15193298888137147,-0.0010036805266770616,6.093128739126687e-07,2.8311283827359267e-05
52,0.08441683623359535,-9.466716398383818,-0.18050426896929994,-0.002628536365579115,0.0008266344749504515,-0.000842324457616663
53,0.1225010968396653,-9.49520621494801,-0.2136121895298081,-0.002537137480762677,0.0010840123520508302,-0.0010943798052774996
54,0.18758289443453746,-9.494713084691899,-0.23099156917153346,-0.001702069398316352,0.0003030838742213364,-0.0010816533443176984
55,0.22351212454632197,-9.472259000413677,-0.22465319753665658,-0.0010361197364483,-0.0010707606574304,-0.0010689079486734
56,0.2122590599566492,-9.442767846952126,-0.20889530281942886,-0.0010361197364483,-0.0010707606574304,-0.0010689079486734
57,0.25230700300404385,-9.451683917500686,-0.1921106452546807,-0.0010309189586391386,-0.00024554847827790394,-0.0018810399790415875
58,0.24118483198427737,-9.457661224218857,-0.19859235940824155,-0.00044621173385371956,0.001220459406161346,-0.0015336640858260578
59,0.20875725612655271,-9.476990231198073,-0.19224236265371936,6.784809909427313e-06,0.0013777612252857305,-0.001064849511403239
60,0.18770601621263602,-9.498617723102285,-0.1662703678707225,5.802244515703095e-06,-0.00017125902634078973,-0.0008866185417627036
61,0.20483024493604818,-9.456828078698834,-0.1702847316080632,3.51391828466451e-07,-0.001036971032350801,-3.5421249038036414e-05
62,0.10573035762587607,-9.430082487853127,-0.13661312805602932,5.300899081713061e-06,-0.0002508834055465873,-0.0008083291619870541
63,0.06924789584205517,-9.442812077674166,-0.13861104155532913,-9.341667899002719e-07,0.0006060657664024104,0.00013244917898007683
64,0.08187376468209182,-9.4742683857745,-0.1523000836343409,0.0003722561997475604,0.0010712943635780084,0.0010609348719281394
65,0.12156052422025193,-9.494081825961832,-0.16943460409079542,0.0010395161824904749,0.0010733075255191676,0.0005480803801711422
66,0.17097615567924151,-9.457197705850847,-0.21888441107958598,0.0010561156988750826,0.001085754883152401,-0.0019973702613391127
67,0.13630402398974348,-9.480419005679494,-0.16636813810853843,-0.0005369042319446076,0.00026496794414057774,-0.002128694844361261
68,0.19043997761410458,-9.458282494899073,-0.1634081186577693,-0.001037160691870645,0.0006127718651703283,-0.0009392637286418818
69,0.23640662870893436,-9.449110307501618,-0.20408528177131446,-0.0010406797191757746,0.0006873172602945893,-0.0004010128392221506
70,0.2355790465884736,-9.466966573684816,-0.25383704511242206,-0.0010373566673594237,5.170561712587944e-06,-0.0008983991415924306
71,0.27129529506873923,-9.4359857541086,-0.24201462874729182,-0.0010428881082072171,1.0227407240410636e-06,-5.018107738441595e-05
72,0.24997105828010005,-9.452938315144337,-0.2466631225628588,-0.00024554361808073506,1.9740222386258357e-07,-2.949006841075268e-06
73,0.18801119863145546,-9.453740662793846,-0.1806313632526552,0.0,0.0,0.0
74,0.1349833154799142,-9.448892892362807,-0.16546865993898502,0.0003806031877142834,-3.059819524174496e-07,4.571087666939195e-06
75,0.11190221992090923,-9.450294305372612,-0.21044018560845087,0.0008721478990161801,0.00017781677304295888,-0.00016506287268399776
76,0.09037461809719102,-9.466523249794127,-0.11654373023984797,4.295852266600068e-05,0.001044199779336452,-0.001026284289694644
77,0.12687104093163998,-9.477091951726672,-0.20220504800601985,6.812477608747658e-06,0.0010819671700864,-0.0010638266763091
78,0.13973760943911895,-9.474558943491495,-0.20111813214474744,1.072470587728227e-05,0.0010849008040111985,-0.0016637468020013063
79,0.1671735734718665,-9.475218119219335,-0.1481754462001403,1.1239803878282487e-05,0.0006916906692939746,-0.0017357283793958554
80,0.20627098980198427,-9.476556725781066,-0.09550067145571142,-0.00016586310381908227,5.322849832614488e-06,-0.0010621782985224231
81,0.17397958706639735,-9.441664892305253,-0.10051267518498243,-0.0010005033328567595,5.993850116087696e-06,-0.0010722024228083742
82,0.21755706181669565,-9.453803192437483,-0.14514355112366656,0.000572143052154211,0.0008373772574785322,-0.0026808949761632514
83,0.22299339506773214,-9.468057250785577,-0.1604550545489335,0.00046551970610851423,0.0010861048435050237,-0.0019789586540826954
84,0.19625044175280837,-9.466575082574005,-0.1629392424682608,-0.00037761812437260496,0.0006861193366737286,-0.0006789009051063031
85,0.1506090585148821,-9.455219997638565,-0.17540725131656557,-0.0006962647257300575,0.00017959752423284513,-8.981117684095475e-06
86,0.10070416337806598,-9.477356908094064,-0.22578991359786904,0.0009729351441846728,0.001039819708687591,8.087902371079362e-06
87,0.10892019183307643,-9.476870461333617,-0.17346854036717696,-0.0005559919438885988,-0.000573535613056988,-4.6933797195067625e-06
88,0.10305204618505812,-9.50359680815068,-0.16909413113897348,-0.00045199378693149185,-0.0004662559170778997,-3.815484192253644e-06
89,0.11029216819726614,-9.503854870463073,-0.1673583616174218,-0.000377603059457823,0.0007943726886498047,-0.0007853467364543036
90,0.1433611528866669,-9.4698779477154,-0.1563826130243448,-0.0008553761008899175,0.0019857543378860314,-0.002138467268730254
91,0.18494856550066804,-9.476746832547986,-0.1953876264718113,-2.0655208022307785e-05,0.0011227101721256244,-0.002125461118529852
92,0.22512865457293985,-9.455807834390761,-0.1671673585912564,1.3654824810895602e-05,0.001914002607601399,-0.002127784491485941
93,0.21737751022594107,-9.457040831779235,-0.17422500126556034,-0.000585864378229628,0.0009372641809236879,-0.0009281891815645392
94,0.18615933099387055,-9.472605913665717,-0.20964701164843347,-0.0014242228071086364,3.051723096275892e-06,-0.0004066398997907655
95,0.15034062938359255,-9.482432016614728,-0.24638654137140945,-0.0019053935584815204,6.721327149643138e-06,-0.0010830702575607238
96,0.11413511722551511,-9.449507742628326,-0.231632995103362,-0.001069969629698395,6.049696818955488e-06,-0.0010730367209514553
97,0.15821386032432494,-9.44627632238875,-0.22296059638845697,-0.0018485111773359662,-1.2934548716625372e-06,0.0005456444790981419
98,0.18726657959917115,-9.446045390556097,-0.21244479370281144,-0.0020980898837905425,-6.452823931826401e-06,0.0016376673504570436
99,0.15500434176922215,-9.448808494908706,-0.1910889473856768,-0.0013303005572202432,-7.4025599021187105e-06,0.0017148122959375013
100,0.09929565128450121,-9.466219907782481,-0.15631733931230068,-5.733541037066432e-06,-0.00018541396568060956,0.0008824329499608219
101,0.19274501374655087,-9.528620716666254,-0.11516510015319695,-1.215120286877713e-07,-0.0010428303297135286,3.7194114269693984e-05
102,0.16590271790196454,-9.476808470146985,-0.18861393404140078,0.0008068475767515098,0.0005814500057181365,-0.0008070013046514634
103,0.17130138132088962,-9.469528772703747,-0.17996784838948743,0.001643598854741205,0.001080651292795969,-0.0010441686853530352
104,0.2053776245154581,-9.48161943217776,-0.17853513272587815,0.0013245304481721738,0.0006838988653032224,-0.001046628350114071
105,0.22957711096742414,-9.49239943810408,-0.20795452953265722,5.746063413438206e-06,4.308758438088101e-06,-0.0008811293331093148
106,0.15765535032909278,-9.501270718153458,-0.16646588081777122,2.1462256563055363e-07,1.6093744954189935e-07,-3.2911268901417176e-05
107,0.18402211215004743,-9.461442705959675,-0.21240271698232477,0.0,0.0,0.0
108,0.1607549471800172,-9.45183910774208,-0.1939984027816306,5.7330350275902636e-08,-0.0006129160432807127,2.119420684231449e-06
109,0.14081132105252547,-9.453017376774465,-0.17337003213234686,-0.00038524261987432347,-0.0002810794763210039,-3.654099738594721e-06
110,0.143786187964126,-9.460391524251644,-0.17837839740103736,-0.0010444059220563592,0.001076743336237821,0.00016339968663897707
111,0.12323711349602794,-9.500707520754368,-0.1689328115376806,-0.0010499373629042324,0.0010725955152492655,0.001011617750847026
112,0.16999395388605726,-9.463446865596236,-0.21234735218078543,-0.00024182648407374983,0.0002469594676524358,0.0002403766668542226
113,0.15006753899978736,-9.445200119425454,-0.20505844661803377,0.0006022541633676658,0.0006190371070637425,-0.001203747876658042
114,0.16116683916081226,-9.444266870323883,-0.18439402442487562,0.0002824720036066856,0.0006866331207770009,-0.0017277077224824673
115,0.21876140722661425,-9.454037556414189,-0.17036333137575915,-0.0010362375883652322,0.00018918857123289933,-0.0010732647647260932
116,0.19429822333602537,-9.467317960901115,-0.14663501800846104,-0.0010363181765257461,0.0010507527562544003,-0.0010762439932428722
117,0.18066945290537917,-9.43610561604333,-0.1381983117331906,-0.0010415692376546336,0.00024930112331519974,-0.0002568248852742014
118,0.15629635070193498,-9.444886357174454,-0.17080197082151252,-0.00045203957290581464,0.0006116949322866005,0.000597271213355409
119,0.134001918033237,-9.470000148581954,-0.1874159002525086,-7.013915831690527e-06,0.001071599273821,0.0010563797946095
120,0.11044943500701279,-9.491124851058462,-0.17064555281081464,-7.013915831690527e-06,0.001071599273821,0.0010563797946095
121,0.05418411205864913,-9.499499575736285,-0.16867905066375768,-7.013915831690527e-06,0.001071599273821,0.0010563797946095
122,0.11342457230058799,-9.472311356805895,-0.20100249644692464,-0.0016108721502369303,0.00024669065504223783,0.00022258416466697898
123,0.14909013543927818,-9.46729784220509,-0.21872362886910263,-0.0008872630922954569,6.6438245324137894e-06,-0.001222227039323248
124,0.15902431464927244,-9.464648106559766,-0.21518623465618536,-0.00037343566368456133,1.0684104321736628e-05,-0.0021258530124260173
125,0.1589864579986786,-9.45667630467107,-0.19116638621502532,-0.0012082610182087767,0.0001958973208531557,-0.0021365172863496893
126,0.18393890556708256,-9.459126267517782,-0.1550826288957511,-0.0020437655351524683,0.0010581331362054427,-0.002149530051475657
127,0.17303129290317504,-9.46253578004131,-0.17809912972589645,-0.00046825444668365695,0.0010835352920593698,-0.0013118654975048437
128,0.20834865454342602,-9.452968280844615,-0.192706663866943,0.0006072550164142016,0.0004687862743193924,-0.0016612348426133714
129,0.2176304516916331,-9.443016097680756,-0.16933610267480176,0.0006664580624959366,7.916334672218592e-06,-0.0017187167099122938
130,0.18053429711136226,-9.44589600818895,-0.1248305344762904,-0.0001737176845919904,4.436456625140914e-06,-0.0008798975519002073
131,0.1634100683879478,-9.475396181615627,-0.14504724652480822,-0.001013889354477324,9.59635920067268e-07,-4.170361197816968e-05
132,0.1222019250802209,-9.443697613097939,-0.18158943577240355,-0.00023754518527031382,1.9097196745219924e-07,-2.8529447513325914e-06
133,0.10602638692497507,-9.457611156190332,-0.20590568393120695,0.0005890616713291288,0.0012268737462952618,0.0012170933584792886
134,0.14206989676239296,-9.473140977021384,-0.20189992734194884,0.0006456508191215262,0.002147542735907876,0.0013313949817553633
135,0.20204568077170032,-9.46806123269039,-0.18425683571978424,-0.00035818124077715516,0.001970565477976681,-0.0003773833753142059
136,0.17415765113642437,-9.460696414552807,-0.21392663067273582,-0.002017096659230833,0.0011178344797585036,-0.0020916915875976304
137,0.21763589696298088,-9.497470963263124,-0.20960579023588938,-0.0012716952019055532,-0.0005803519110739483,-0.001314404829531779
138,0.26012262165999145,-9.470668731178831,-0.23250646176119386,-0.00043841587310566914,-0.0004541969545623346,-0.0010638624597570485
139,0.2900395653261236,-9.443738260775296,-0.23275590345922473,0.0003961437677711539,0.00040669623017567275,-0.0010568175639878421
140,0.2796116919192694,-9.452481262357264,-0.1992359767759172,0.001051145309636742,0.0010820277738202314,-0.001235186581884516
141,0.16952736441161936,-9.483977299301843,-0.18391339655858546,0.0010566819443257654,0.0010861794894764356,-0.0020842010949790554
142,0.12897625106402605,-9.443212727407364,-0.14384061541370569,0.000239243777798143,0.0010789421793479536,-0.0004812214814681527
143,0.12378858557900242,-9.438020769575093,-0.14287292430900642,-0.0012014848391670126,0.001074771930462977,0.000590058709323813
144,0.14007421203794646,-9.45152173306173,-0.14566326606770313,-0.0020942606886098,0.0010732772940356,0.0010313117229567002
145,0.15930448522164234,-9.462800640676933,-0.1553894381177658,-0.001729987791266942,0.0008865928799714755,0.0008519267440816618
146,0.15441184844352382,-9.451004303705623,-0.2394077366969231,-5.431160443787735e-05,2.7833885324234184e-05,2.674556928562305e-05
147,0.2044342825885359,-9.464399744561883,-0.18615125503789046,0.0008075880752121548,-6.492519873164261e-07,9.699224835028638e-06
148,0.23522497975196233,-9.452182043348714,-0.18722209758733682,-0.00015108525038422336,3.1019110602526604e-06,-0.0006107028937274143
149,0.24834336739894003,-9.441988096663675,-0.19548918495367806,-0.0006456569410876631,0.00040890984944299077,-0.0010693344660728812
150,0.2429968579268417,-9.449783650194234,-0.18182341305405483,6.8300609129775045e-06,0.000893984902326071,-0.001063176646813333
151,0.20972692783563532,-9.471423694244894,-0.1546263544333691,6.910649073548526e-06,3.2420717304456e-05,-0.0010601974182965538
152,0.19540885795750257,-9.462591251755878,-0.1944585243423089,1.5566222145578052e-06,1.167252885898465e-06,-0.00023870002732805968
153,0.15569268327623834,-9.451712573370378,-0.20027616416816174,-0.0005997611880371969,4.821717348242367e-07,-7.203200231217466e-06
154,0.13147611118293476,-9.444792419026744,-0.20232126506712833,-0.0014348065832593504,0.0004050428093611315,-1.8628357897290046e-05
155,0.14054727769687175,-9.443792059302108,-0.2148554576548446,-0.001904401531237232,0.0010783141646764805,-2.6594310662326315e-05
156,0.1645211979096489,-9.446242333182099,-0.2227469200467281,-0.0010689776024541636,0.0010776425343457905,-1.6560774053083387e-05
157,0.1443957060269235,-9.475386763090764,-0.17793691874478618,-0.00022887412730948834,0.0002459760691636332,-0.0008257295222002671
158,0.18375873908517548,-9.475301629579533,-0.19403393814804065,-0.0005895895289411942,0.0006284497542131487,-0.001680226022920847
159,0.2000046007920231,-9.469500359294914,-0.21065456834888813,-0.0006400671048916862,0.0010857299284374768,-0.0017340620472425532
160,0.17288021831093767,-9.466386567546888,-0.20257552873464912,-0.00017539382222116063,0.0008936687853285756,-0.0012519751548910004
161,0.17972990980030373,-9.448687552107364,-0.20260177561649742,-0.0010044168284091333,3.6927316246575626e-05,-0.002108034563754849
162,0.1500370992674869,-9.4600863926978,-0.14604187377221609,-0.0018450190743832813,7.83575306405659e-06,-0.0013199318880138078
163,0.16255373180478136,-9.4606889924866,-0.1425316056061909,-0.0008856059929333357,0.000620405095359525,0.000148873891503555
164,0.17326809338830845,-9.450972194037336,-0.16102789965241787,-6.938101179613921e-06,0.00026106844067817693,0.0010591825533752528
165,0.16126678445648074,-9.438657528051152,-0.17847025060974994,-0.0003739978105647103,-0.0008907096903713788,0.0008716426782310249
166,0.14316402837744258,-9.440138018684051,-0.18934560917786203,-0.002038611115698096,-2.365505374708453e-05,3.8772461102152663e-07
167,0.12173649160947671,-9.447823376572655,-0.20596810704907867,0.0003496465143332195,3.7498548400443743e-06,-0.0008193005434778709
168,0.09738688633959547,-9.468101064461493,-0.1547031563078199,0.001648326505509834,0.0006220430836482311,-0.0004309388759360094
169,0.10813872918934433,-9.480428899730766,-0.12925435476926467,0.000515982317918147,0.0006723713725698149,-0.0003958182276018527
170,0.1620026362697996,-9.47964255462415,-0.16999452140247734,-0.0022651075258126947,7.010515431792907e-06,-0.0010873904633098353
171,0.2246283870297154,-9.483063700367712,-0.23765409639454166,-0.00309974775485022,7.681515715266005e-06,-0.0010974145875957844
172,0.19408369708437892,-9.4712309808596,-0.21176681545492623,-0.0015063168311786963,0.0008394457302013587,-0.00025699365240412927
173,0.2088409637028486,-9.470290809282236,-0.2144879558269373,-0.001043176204400564,0.0004557613102548343,-1.4101244828432436e-05
174,0.2155547587759722,-9.465841195897184,-0.2202204249568461,-0.0006491617071751788,-0.0004061195738132211,-6.390825161820362e-06
175,0.18995045373983374,-9.45508874410003,-0.20855659258885756,8.281402239485679e-08,-0.0008853607677284821,3.061515430542212e-06
176,0.15521273261519178,-9.453133470425193,-0.17151700571884032,2.2258618238352074e-09,-2.3796582706875614e-05,8.228691377209976e-08
177,0.13950501600494875,-9.457386165176299,-0.19691793477208072,0.000811587291617335,-6.524671155215937e-07,9.747255879899612e-06
178,0.08827759086684432,-9.465023500658058,-0.20232379433920594,0.00043598464713315977,0.0006191976698377635,0.0006160371315857753
179,0.07386320771878503,-9.48084874733216,-0.19536802657302713,-4.398766280026363e-06,0.0010735602768393911,0.0006553600329671281
180,0.11037601883342033,-9.502240693151444,-0.18714821145366947,-0.0003700035963479146,0.0008868227286869466,-0.0003859783400327463
181,0.12750024755683245,-9.515999457563032,-0.19008295486912838,-0.002028919090470932,3.4900710924329125e-05,-0.002100289349713549
182,0.2146171789321458,-9.475199069680997,-0.1844228030623027,-0.0012712470192366725,0.0008417758778825327,-0.00048769479099999516
183,0.2505747790003465,-9.455670089343648,-0.1842293506330141,-0.0010391747529043959,0.00045738567824329924,-0.0006276787985555074
184,0.2796700693507402,-9.443449302108027,-0.19533939158187252,-0.0006357118808529341,9.63526905588053e-06,-0.001871655650129486
185,0.2978650767093059,-9.441119747739592,-0.21536557512414156,0.00020628182834512944,1.4478369020135915e-05,-0.002989249967162994
186,0.22643257974877457,-9.47850244493846,-0.23114527669310136,0.001035390616534822,9.659547748115913e-06,-0.002131007778668928
187,0.15261742500888903,-9.506310170092885,-0.1992988785128483,0.00023318763151258695,0.0008412478055793949,-0.00046827323717773856
188,0.09999740866710975,-9.49540840133761,-0.2016580101341115,-0.0006085333997618585,0.0010742653896849612,0.000603277013999255
189,0.09400219688786382,-9.47194694735271,-0.1872741546786737,-0.0006542140508442469,0.00107211958360115,0.0010486068472178674
190,0.12113768776169252,-9.458528205792385,-0.1567783688179581,-0.00019321178146096022,0.001072681465022549,0.0008636392689186596
191,0.11526652362795026,-9.471802700646991,-0.18640493038338163,-0.001022320569650647,0.0010775002862946045,5.397080424660962e-06
192,0.16090296545122892,-9.469247915048918,-0.19628880938164667,-0.001037921087150995,0.0019222853214601356,-0.0008459806426588515
193,0.20858168659777893,-9.454879047795151,-0.19135189441928419,-0.00043127003249980475,0.001534914445878193,-0.00107065263091899
194,0.2272363163206998,-9.45885095522533,-0.17462227690576063,-0.0003871184126494169,0.0006748651631246824,-0.001470604585402676
195,0.22952572956386352,-9.476220498480746,-0.1594504888551386,-0.0010318315717298147,0.00039787240659971696,-0.0017525605865859255
196,0.2867695798678416,-9.453589676436582,-0.17379251640455542,-0.0010430608992574237,0.002113510220453429,-6.128926371471778e-05
197,0.1989102785103289,-9.460738416512134,-0.16549117434571337,-0.0010378601607977328,0.0013181536594002615,-0.0008445689654974347
198,0.1638780375693424,-9.455414136635943,-0.1727580815515124,0.0001712427645375117,0.00045352070325793914,-0.0004440276410626012
199,0.133178668577033,-9.450014287068715,-0.17318576995032345,0.0006458670628775194,-5.192380707272005e-07,7.756937043359598e-06
200,0.09416491559385504,-9.455696965274853,-0.15879930400101777,-0.0001900242292718907,-7.86363309403604e-07,0.0001895769199594647
201,0.09074006984917203,-9.480768574683964,-0.14245421593488222,-0.0010301958991572365,-4.263184014477364e-06,0.0010277708598815517
202,0.08397129806173771,-9.503441426084793,-0.19944304785574868,-0.0010393240369091477,0.0008449620957707401,-0.0006116877564484985
203,0.11906889336776152,-9.488540297186287,-0.2076317677714778,0.00018061324180294007,0.0004588584960462466,-0.0016764942079152759
204,0.18091587624549516,-9.467251731620356,-0.19205915013520922,0.0006590334115149542,9.85406160628423e-06,-0.002113452941148402
205,0.23869258613626634,-9.458245849277285,-0.1795963417277755,-0.00017688176807850636,0.00020513341795969943,-0.0019314510082081317
206,0.24162816820313704,-9.462177546890015,-0.19539980264480716,-0.0010171392199654307,0.0010632168876085325,-0.0010954398479163991
207,0.19053907833532724,-9.4752531949776,-0.1677572067172557,-0.000220734666648665,0.0010821501042333466,-0.0010665595434482499
208,0.2097189815769867,-9.474574879962471,-0.18042273600405426,0.0006139055623887116,0.0010814791039498466,-0.001056535419162244
209,0.21061378028808955,-9.468440885857428,-0.19467403392940644,0.0006487433011892827,0.0006680103740264204,-0.0006495789207099595
210,0.16429403095346873,-9.463856556871141,-0.18842344287325102,-1.2782534161043605e-06,0.00019529396493007183,0.0001925202858953834
211,0.12515293672852135,-9.465343734719564,-0.1642266166025455,-6.890282424483756e-06,0.0010527103289630947,0.0010377591215866128
212,0.11041458583730156,-9.496148864558716,-0.17814517038440414,-1.5255202305177018e-06,0.0002330718546458519,0.00022976163194112764
213,0.08197526220755597,-9.470346509250005,-0.19374214862961725,-0.0006078183026940717,0.0006278534284246822,-9.46864588381183e-06
214,0.08870649098745034,-9.458191073005331,-0.18900701728642502,-0.0006413221027275752,0.0010792850423625702,-0.0004172177784323051
215,0.15122027988233627,-9.469393411097977,-0.1792918552783214,0.00019758525197121368,0.0010818138003095452,-0.0010615354735440412
216,0.2529871248672162,-9.430526335350205,-0.22872289595675627,0.0010322254810088377,0.0010811428000260452,-0.0010515113492580103
217,0.20869682495358036,-9.479273509433817,-0.1615215492242717,0.00023302654973118242,0.001081785307648855,-0.0010611098195182176
218,0.2183034715397179,-9.476151277599403,-0.20098996384210208,6.753676244391553e-06,0.0017106097548117392,-0.001066000478270451
219,0.23084080951454491,-9.450923148245398,-0.22377521183390675,4.099827019512096e-06,0.0017445524895937533,-0.000659685927245678
220,0.21631969961557962,-9.432870532905213,-0.18666305076472375,-0.00038314061089088315,0.0008794763878669379,-7.640677527352393e-06
221,0.17766786906844909,-9.446647026213773,-0.15750480295966296,-0.002053124180550716,1.925483345963321e-05,-2.4719109905795407e-05
222,0.08150404575093725,-9.458515662351639,-0.19661833395653724,-0.001274311387578798,-3.0429557812536355e-06,0.0008156469677665008
223,0.07661610100833519,-9.454889378676464,-0.17836842306774736,-0.0010500468490002,-4.34533174202311e-06,0.0010475750813954
224,0.08131475820899613,-9.4542777163578,-0.15992616834349466,-0.0014510222682894004,-4.022971747083659e-06,0.0010427593209051359
225,0.07956803276180974,-9.46346612495484,-0.1684919645866889,-0.0019006005920214784,-2.7058268378260696e-06,0.0008421135401013924
226,0.1456186292664106,-9.473768285828921,-0.18919937121885003,-0.0010596452223905596,7.703638200331623e-07,3.9290125026027646e-06
227,0.1661017796180041,-9.477337952248469,-0.14599653923367722,-0.00021410924423579463,0.0008529653470241428,-0.001669530183407597
228,0.19854013392908337,-9.475381736332302,-0.1780431774048349,5.705088059203265e-06,0.00045166369358967575,-0.0008828094849503044
229,0.2333719649450408,-9.469311028940261,-0.2005488527483723,-0.00040130454977425147,0.00041453249482848245,-6.2515568493623565e-06
230,0.24159381160205662,-9.468558576474965,-0.18979684928255475,-0.0010432343713914,0.0010776218383444,-1.625159491371556e-05
231,0.1696720509637252,-9.493160379374618,-0.20411549480602528,-0.0010432343713914,0.0010776218383444,-1.625159491371556e-05
232,0.14239475892265588,-9.49604360951404,-0.1903331467830135,-0.00021888793079513402,0.001081033170665561,-0.0008386575574933026
233,0.15247316097719665,-9.484117378770655,-0.22082906893078177,2.766981244859025e-06,0.0010789336033921253,-0.00044347057218520266
234,0.146270759530835,-9.466440637952177,-0.2347265037871798,-1.0071911147143443e-07,0.0010767832219537,-3.7234408497883578e-06
235,0.1112832059632252,-9.459200612539966,-0.22057071026291025,-8.204173876267908e-08,0.0008771043202125181,-3.032965214186412e-06
236,0.08682002207263631,-9.488211539877172,-0.2314034353662538,-1.4535781916707186e-09,1.554013519105301e-05,-5.373669741678832e-08
237,0.08733965427090387,-9.492596205371411,-0.17773632671217504,5.273326124933263e-06,0.0016969154946907075,-0.0008387723851572451
238,0.1431259230016157,-9.482834310906746,-0.14386605542071892,-0.0006002678617679086,0.0015318951499241197,-0.0016943261872609029
239,0.19465355690538916,-9.478266685913468,-0.15532151965493352,-0.0006294343992253471,0.0006700823304403366,-0.001721648653470029
240,0.2202090522053123,-9.484992055204387,-0.19339106193255098,6.913196720219093e-06,5.18394813268925e-06,-0.0010601032354593
241,0.24614002712934083,-9.492849074247603,-0.18595573416579242,6.913196720219093e-06,5.1839481326892495e-06,-0.0010601032354593
242,0.2057165320957836,-9.496862346676126,-0.14990535055842202,0.0008271654572153434,4.524514906056528e-06,-0.0010502519123155357
243,0.2290377563417408,-9.495022633713358,-0.16439914302300257,-0.0001775251565853909,2.288774462681815e-06,-0.00044055880559768586
244,0.23274714779593578,-9.475650569328959,-0.18750746796711548,-0.0010458841381235024,0.0008317734461531512,0.0003944172929452491
245,0.17533848704803345,-9.44953434049801,-0.1941619257630776,-0.0004657118951617397,0.0017474635378105735,0.0010485357222124994
246,0.06916826896287759,-9.455467033677767,-0.18184436480239433,0.0020391537436868735,2.1512556414549492e-05,0.0010845787618248954
247,0.07704724158455148,-9.462330469976076,-0.19231815176058986,0.0012640052047381556,0.0008452783759142674,0.00023809905803667957
248,0.13745179359838652,-9.460536555693736,-0.1781499183976802,0.0004306075598483355,0.0010764369585371605,1.4494146741643338e-06
249,0.18473100886465293,-9.476779211199057,-0.1709019348342365,-0.00039867617044921484,0.0010811245972535972,-0.0008299662994658608
250,0.19980517780407098,-9.497882575694291,-0.17819748874988378,-0.001030679069121138,0.0008852794269332316,-0.0019379514598321613
251,0.21937572491654786,-9.46100794209834,-0.17726174414352486,-0.001036135115649569,1.9563526255351066e-05,-0.0010859577182206715
252,0.20427028467593067,-9.475436658316244,-0.15680133178278047,0.0006124002439721394,8.78833188735467e-06,-0.0018886315060794069
253,0.20119259135936612,-9.478038314492833,-0.17851069492783492,0.0004438154308948799,0.0006428961610377893,-0.002118225439708234
254,0.19364775301513795,-9.493470060087528,-0.17961813428401738,-0.0008011709832313639,0.0006661334824273416,-0.0013104572354345693
255,0.18020212327510457,-9.5127247505561,-0.15693012592281025,-0.0016948525107634723,1.3625589512727109e-06,-2.0355371839522583e-05
256,0.1787343322416688,-9.484213644439883,-0.1811885171721347,-2.4788352942575574e-05,1.99283371117637e-08,-2.9771094430403006e-07
257,0.17726654120823343,-9.458123950597951,-0.23026794747832663,-7.939201025673903e-08,0.0008487761990024944,-2.935008558138428e-06
258,0.12398993799865093,-9.483418202601243,-0.2066274783174697,-0.0006138591645667266,0.0010772766466372622,-1.1094749738053864e-05
259,0.10694573366625182,-9.496621903899843,-0.20733056403311872,-0.0010432343713914,0.0010776218383444,-1.625159491371556e-05
260,0.14216118867584615,-9.474194138549553,-0.24225023317721858,-0.0006470818061509019,0.0010792621205298067,-0.00041165817927255255
261,0.1583068900436348,-9.441253224282663,-0.21413401218214964,0.0010332667274606654,0.0010862196566075652,-0.0020888425080030013
262,0.19374828655034262,-9.439325378328784,-0.14990880705472476,0.001056786286899362,0.001936579224682194,-0.0021153373056569075
263,0.2107354797819842,-9.46788115430549,-0.1680589720569635,0.0010527485613234678,0.0015262146123883908,-0.0014889221725567338
264,0.22148592881667375,-9.484013100893868,-0.20442073482706893,0.0006467465367655772,0.0006644479439090551,-0.001467647408544724
265,0.23401210768002767,-9.468907730301837,-0.22315774469375668,-0.0003838660429693613,0.0002125341999518207,-0.0017251628818386727
266,0.2506470727256308,-9.432034029805733,-0.22419962975785768,-0.002065078864487422,0.001067141478942929,-5.096719394802332e-05
267,0.16493202057558365,-9.480079691367223,-0.1754142797373787,-0.0012574515373958443,0.00023173911509999443,-0.0008529340387032579
268,0.1344517690868765,-9.484687927186226,-0.17334629720316122,-0.001040296873430832,2.965810945253082e-06,-0.0004475336309800564
269,0.11440502035792724,-9.46835902223165,-0.1706333193808647,-0.0006392302199308029,-1.5088903290440585e-06,0.00040556772268642905
270,0.08395454395084144,-9.45817366587621,-0.15668775614014302,-0.00020372408957086,0.0002004549781278056,0.0008556894298096872
271,0.05313093224869939,-9.48472872073438,-0.1660449027685075,-0.0010329134659209818,0.0010668379844213172,-5.5319872009497745e-06
272,0.13778586388173392,-9.463186513319483,-0.1583544015463589,-0.0026869690940581185,0.00023220363951181246,-0.0008707777613441633
273,0.1730015340568316,-9.437427635971643,-0.16396373807629872,-0.0018873477315768778,0.0006453942686644417,-0.0017114625222019878
274,0.1817699557635727,-9.436053785088891,-0.16758767913526057,-0.0006248384699746589,0.0010856413467682454,-0.0017182835777274528
275,0.19039236947860738,-9.450374379425439,-0.18187005537269862,0.00020560287701007845,0.0008766241699680756,-0.001060729902341143
276,0.2265978816366789,-9.42873340227494,-0.2530406886577453,0.00104032369420805,1.4388984663128786e-05,-0.0010477265495384162
277,0.2052592131786211,-9.485818859322194,-0.1693010743070402,0.0002250491865942416,0.0008565368641260055,-0.001060426966055113
278,0.15397329705985796,-9.498822499021738,-0.1633741289799076,-0.0012347860094483391,0.0010768320148091541,0.00017426474693505448
279,0.11958667304734187,-9.487715129601588,-0.17984554192407956,-0.0012753118249698079,0.0010746483333670506,0.0006265475771546888
280,0.12470503253540197,-9.465818551462792,-0.19025550417480047,0.00020067802155686852,0.000871742772801496,-0.00020329845696889605
281,0.16482465411597436,-9.436802647593101,-0.20066245465202287,0.0010409302796027854,1.3655408484963225e-05,-0.0010385131683742128
282,0.12702747811214424,-9.454004814381705,-0.1973414601946879,0.00021899087414693877,9.062338480898579e-07,-0.00021847537852978736
283,0.13793362004796986,-9.472425083456967,-0.1708332057062436,-1.192216347387012e-07,0.001274592816646689,-4.4074525527414736e-06
284,0.1584067934116116,-9.488210745700137,-0.15483689657669122,2.5458702155811994e-06,0.0017344337240590324,-0.0004212352535079001
285,0.17556500834227212,-9.48861150308504,-0.1658691369679576,-0.00019327248075684045,0.0008755687671579538,-0.0010655156840296063
286,0.2083456747556613,-9.449766355183534,-0.20100030142708566,-0.0010278321216337005,1.4675582419952955e-05,-0.0010725605797987756
287,0.21690904186875312,-9.460079330544023,-0.1807887588757852,-0.0002100491486089026,0.0008582627313648996,-0.0010656573034784544
288,0.2324690793301474,-9.462520768984588,-0.1717286467333281,-0.0012333173403571132,0.000442205526984102,-0.0004486599760044563
289,0.21650468529399547,-9.460829040850829,-0.18109170786126336,-0.0016803500961716272,0.00042178116038191107,0.000394313098919579
290,0.16866273718706853,-9.462269957284475,-0.1895126847607186,-0.0008493573674368505,0.0008650291706502797,0.0010469795675900817
291,0.13196796135117914,-9.477520565043688,-0.1479987130058915,-1.4636550238719216e-05,2.793985345181661e-06,0.0010599829203928107
292,0.1267810715036194,-9.460130117771829,-0.1628208386769624,-0.0008337509753815837,-0.0008581116164124559,0.0010531235234250266
293,0.09723717887182556,-9.478866058373253,-0.16420765899263162,-0.001045907336785003,-0.00043968181493639775,0.00042060641717031947
294,0.09560024686523463,-9.48014796024682,-0.16535837154346839,-0.0014534889190981905,0.0004243228715846294,-1.8919330409521876e-05
295,0.12897179125650216,-9.454184828995073,-0.16082233722276743,-0.0018830303083886904,0.000872366860062724,-0.0004352717735893289
296,0.15343497514709434,-9.440904424508142,-0.1232823781436274,-0.0010364577159081817,1.8430581355116944e-05,-0.0021194915857659525
297,0.23611345051999794,-9.454901204792527,-0.16259075797015432,0.0006204576259421236,-0.0008485163893261702,-0.001269060304230853
298,0.2038831533461336,-9.464791718392918,-0.1491016803427459,0.0004309372822859855,0.0002061827421380343,-0.0010557066502324046
299,0.18562759297499115,-9.469043253323601,-0.1575785637367841,-0.0008147280363138418,0.0006587852473810054,-0.001072228330294253
300,0.20778097092196096,-9.47201204459108,-0.1909730657805053,-0.0016772754424036827,5.5324834093228e-06,-0.0008749227552579637
301,0.1813607323201215,-9.484309913466431,-0.17119998480254314,-1.2742725430852935e-05,4.203180661532757e-08,-6.6470301547372684e-06
302,0.1690205200835348,-9.441480145416909,-0.2103496800150716,0.0008281707220825569,0.0008543026711563973,6.9909640131230835e-06
303,0.11428283849863263,-9.435470546564435,-0.18350337269283912,0.00041910842726721517,0.001713713113937893,0.0006289864846419509
304,0.10049726256759692,-9.443325921989983,-0.18228509591014297,-7.074982908169995e-06,0.0017244644789067875,0.0010541222325259967
305,0.13750424106150913,-9.448340949734874,-0.2102904316354715,-5.670088198316263e-06,0.001072606959994652,0.000850310724149936
306,0.15413920610711235,-9.441453558422115,-0.1732373440024021,-1.3864735050770626e-07,0.0010767547809832074,2.092659941908886e-06
307,0.14064782108669432,-9.48974326494748,-0.15818811803468516,0.0008398086937069021,0.001084359450614567,-0.0016793629650338263
308,0.17095500469567868,-9.46275973719582,-0.17902344184508245,0.0010569257225025073,0.00044587983438504325,-0.00211018257173141
309,0.20100229352385485,-9.452359916054618,-0.18530807510344172,0.0002330659975307421,0.0004354149797464582,-0.002120038756396267
310,0.20815494504697937,-9.472724791760097,-0.17438250649081066,-0.0010307313549085344,0.0008769831931506269,-0.0019297867267410974
311,0.19347703471262606,-9.452574724857387,-0.19566810213572317,-0.0010361874014369638,1.1267292473001876e-05,-0.001077792985129859
312,0.16615533494624685,-9.48128874978723,-0.1628569818752023,-0.0002066366901191366,5.355629330910539e-06,-0.0010626679939414025
313,0.13948473169771228,-9.474085766754705,-0.15845442954136357,-0.0012399668451903937,3.096489861516133e-06,-0.00044383479979858944
314,0.1314460898652601,-9.451752084802113,-0.16026585707022986,-0.0016797736808832637,0.0004231497395619852,0.0008174308799510577
315,0.12366493494901704,-9.44002746136158,-0.15807037751987754,-0.001053007998941791,0.0010702929599196009,0.0014824840273500017
316,0.058592865800039834,-9.46954287541899,-0.15508458973845687,-0.0010364084825571801,0.0010827403175528362,-0.0010629666141606703
317,0.08453188556464639,-9.459909896877502,-0.1393459300304306,-0.00021157322048831413,0.0010780123105879123,-0.00022262670779530112
318,0.16926765632161178,-9.43064295930294,-0.16145890346581973,-0.0006136125453716567,0.0010834657335830073,-0.0012755272195888838
319,0.21001507043352383,-9.426386773585076,-0.19090288483083184,-0.0006133592936910002,0.0006631215412335231,-0.00255100137194206
320,0.20019622947660345,-9.451636005664977,-0.20961211446831512,0.00022415903349785174,1.4374465819854682e-05,-0.002970744588987073
321,0.23542321427905724,-9.468338488995311,-0.213028494228103,0.0010532678216875445,9.555644547834679e-06,-0.002112502400493007
322,0.2385028506690427,-9.480157331937917,-0.20810422855244132,-0.000610379073520431,6.7369666881585e-06,-0.001283405533919929
323,0.18780360150690661,-9.500036303920854,-0.1629887722637604,-0.0010362204555598,6.022564523355389e-06,-0.0010726313895232
324,0.15327295022823056,-9.50559441490558,-0.13213123032139573,-0.0010362604223088292,0.00043330517447045304,-0.001074108902816358
325,0.14400768204082645,-9.486539697721497,-0.14283057347077083,-0.001039044168803281,0.0010807639148339848,-0.0006587976558316734
326,0.10486658781588418,-9.445259516570731,-0.19380717798558933,-0.001050107050498946,0.0010724682728568751,0.0010376384725841216
327,0.10813553654208263,-9.476942842597458,-0.20329354678787095,-0.00021848390146072012,0.00021336062635077613,0.0010568073687937276
328,0.14516370603318385,-9.443927905912698,-0.19353929314519874,-0.0006299429850638241,-0.0006478727056554445,0.0010548439589438355
329,0.16492264710758517,-9.437946041840522,-0.19981577501455944,-0.000632681994645995,-0.00022346019438002437,0.0006319769511130787
330,0.16939977988381155,-9.468342374181677,-0.21549448795689344,-0.00020620382302712312,0.001076948916388675,-6.198762620172551e-06
331,0.21587982927593807,-9.45800444448037,-0.1902928954875079,-0.0010408440520646184,0.001077619916672175,-1.6222886906143906e-05
332,0.23455171733280752,-9.43836210464211,-0.1641329504392495,-0.00019994808391505785,0.001085228527402675,-0.00169862806543844
333,0.21219158215483286,-9.443320146138978,-0.17413422146546947,9.594440523089068e-06,0.0010840532602178687,-0.0014904264109579907
334,0.20933543219036438,-9.46539848618534,-0.17789616038284545,-0.0008213890285483571,0.0015137619828259818,-0.0014977045146306299
335,0.22512928136273597,-9.487960022520738,-0.1709857791480659,-0.002074967056088769,0.0019519597060957518,-0.0019426509162337184
336,0.19528419701621358,-9.485020036001355,-0.1882966409124219,-0.0020804230269475935,0.0010854348249626075,-0.001090654377224693
337,0.16153308706111036,-9.482081291045589,-0.1972268096855177,-0.0012521753632573549,0.00021905089690872411,-0.00022944261947922579
338,0.14973599101186547,-9.457437314013431,-0.22575769270716972,-0.00042290918140053984,0.0006417992494442991,0.0006273234418118355
339,0.15581673699711002,-9.447775067286244,-0.20865208452246634,-0.0004229033553048097,0.0006425869342466375,0.0010528690835601281
340,0.15968386123914347,-9.463609234886206,-0.16204288292494506,-0.0008412359238090033,-3.48122482890923e-06,0.0008392556886352633
341,0.12494614011450263,-9.488690797360285,-0.18523887294049232,-1.0642539236849133e-06,-4.404123835583086e-09,1.061748713203733e-06
342,0.18598262781536404,-9.455318135190982,-0.1226264472051383,-0.0008337440295770213,0.0017224237719991183,-1.5965129876816523e-05
343,0.21965866127913014,-9.446914921632946,-0.177550480902109,-0.001039132095032024,0.0015126628959539526,-0.0006530036411080241
344,0.21994530817150165,-9.46286342661512,-0.17818107466811334,-0.0010390820970422967,0.001080735473863493,-0.0006529815550401215
345,0.21073208180609018,-9.476801711554964,-0.11939504503275838,-0.0006242492259397206,0.0008645408541645537,-0.00043368489117154426
346,0.24595906660854397,-9.436481049553036,-0.16490368687864848,0.001056179895832636,9.934205220662528e-06,-0.0021078899913854884
347,0.19853919656051305,-9.447286924603688,-0.15998845974677828,0.00021157357427801788,0.0008630700524111117,-0.0004252329145071892
348,0.1620851119630447,-9.457376141996699,-0.16875254362715658,-4.187395228347283e-06,0.0004277316364397727,0.0006344460064868572
349,0.14275734467597595,-9.464019039640164,-0.1697396421880182,0.00041034947470799656,-5.519402093653887e-06,0.0010651146077042095
350,0.14569753527592527,-9.471393845590566,-0.17232759128184028,0.0008287944571375785,0.00042639264111948096,0.0008564674702892984
351,0.17503654041546216,-9.490546185035479,-0.21674365065799941,-4.7550309649802075e-07,0.002154294110556714,-7.733017135040533e-06
352,0.15350893859173761,-9.479738293308076,-0.23406396145959088,-0.0008295036274561036,0.0012967397663516097,-0.0008629931797147097
353,0.17531177769691453,-9.461537734134374,-0.22134047640424698,0.00021243305768726072,0.00043205563941250285,-0.0004224588102549179
354,0.2149471342791492,-9.450232454445384,-0.22409708765480393,0.0006279338489807268,0.000432985144567621,-0.00041871104549490883
355,0.23123833658335421,-9.455415353035821,-0.234639620303839,-0.00020262330664449197,0.0010821355437948793,-0.0010663420239502039
356,0.16775669332956597,-9.481932501505678,-0.19266779286278166,-0.0010353726535281217,0.0010837833896526693,-0.0010773054698799422
357,0.21276895168824955,-9.465696092285441,-0.18921688059624475,-0.00019527645363197387,0.0019496372705021998,-0.0019192778846029081
358,0.19896555436330765,-9.445785005172404,-0.19322138121174912,5.37619404358862e-06,0.001510788873452582,-0.0008512322059218613
359,0.15882499522160493,-9.447588161813341,-0.18057763398172666,-6.030186362858029e-08,0.0006446843509556882,-2.2292732637609012e-06
360,0.11813691201504754,-9.465250363817153,-0.1601374224185784,-1.3924185731876681e-06,-1.0441227053884965e-06,0.00021352024168973572
361,0.09614173852177121,-9.462285139889609,-0.17298955959587048,-8.532766511213992e-06,-5.190657745524365e-06,0.0010617205181378813
362,0.08537793760991208,-9.44754119608356,-0.1814180374154593,-0.0008487096302375577,-8.671373118192436e-06,0.0019007109069463929
363,0.11582885648533758,-9.465320379992367,-0.19014726997887976,-0.0010527416703232796,-0.0006544174739632935,0.001472347483710668
364,0.1512606259225443,-9.487153491312556,-0.17590767991694228,-0.0006252076298600028,-0.00021172467411583362,0.00020117523218334292
365,0.18311221185726712,-9.487113493091124,-0.1556812922115835,0.00021897948151150236,0.0010828461432930525,-0.0012756940637389399
366,0.22943219897333622,-9.442113406048136,-0.1852699965368244,0.0010545604301531663,0.001083947737705188,-0.002107789295313685
367,0.21720060702803978,-9.484884652963332,-0.1738404738256573,0.00020893271373939018,0.0002147550163223215,-0.0004176016137802199
368,0.20349549791860164,-9.500637430428412,-0.15613170012609928,-0.0006284222389407503,5.052134869610805e-07,-7.54742271945658e-06
369,0.2030918701717992,-9.481550446256566,-0.1657333945309372,-0.001040350643118079,2.9254910641500552e-06,-0.0004392883254105199
370,0.19647113941137723,-9.452385039049844,-0.19093095575939834,-0.0008275875696829762,3.751088192097795e-06,-0.0006403420261690922
371,0.13168879866199507,-9.468952968699341,-0.17677275738193782,-9.816171099412669e-06,-5.15234219690941e-06,0.0010540882443856694
372,0.14881302738540733,-9.438469637594526,-0.21090855027627212,-0.0008333935184412285,3.8143000636560045e-06,-0.0006523720083160738
373,0.12647886476676184,-9.449496529378258,-0.2144546411916577,-0.0010362204555598,6.022564523355389e-06,-0.0010726313895232
374,0.11072947006814952,-9.472594166776933,-0.18285213978137924,-0.0010334304117377876,8.114714225797007e-06,-0.001500470289885262
375,0.13044200881793364,-9.479976276498707,-0.1571416128194667,-0.0010293417455401587,0.0004493048532727068,-0.0021352449235810473
376,0.197818671569939,-9.445741994856848,-0.22069111491761906,-0.0010295023003698998,0.0021657888881786,-0.0021411804049697
377,0.23255639269458092,-9.457037266474035,-0.12035581585001431,-0.0010295023003699,0.0021657888881786,-0.0021411804049697
378,0.21413496811612653,-9.465011266990112,-0.18035625492392,-0.0010295023003699,0.0021657888881786,-0.0021411804049697
379,0.19298832683926612,-9.471403870358783,-0.23565578022034922,-0.00018685646248373854,0.0008601501786733032,-0.0021265491335055193
380,0.18975563877090346,-9.47667727175371,-0.22621142404720138,0.0006286677394270666,-0.0006297587396271146,-0.0016789174194726244
381,0.1970369555512131,-9.479783649683224,-0.19091663083476246,-0.0010432627035248368,0.001077600593135249,-1.1907007664285135e-05
382,0.19312284612871816,-9.418337538932443,-0.21177156362836563,-0.00104879414437271,0.0010734527721466935,0.0008363110565437639
383,0.1648183406395372,-9.435986112191024,-0.22317649351290478,-0.00041972572096833877,0.001071931069160616,0.0010514230787874758
384,0.12242949806946993,-9.458632726558532,-0.2183185308239688,-4.258431880569913e-06,0.001509644100054798,0.0006260800080010545
385,0.07862164813002274,-9.469401208289042,-0.19118167140617673,-1.80905362777821e-07,0.0019340506141761833,-6.687811358460624e-06
386,0.0485769739383886,-9.504082930625875,-0.13722515289005738,-9.954810168912905e-06,0.001066613761566628,-8.828883157841598e-06
387,0.06716899369523618,-9.50014439028098,-0.15698777015233253,-0.0016743263508203598,-0.0006510241568736376,-0.0008711461512274056
388,0.12608471075190564,-9.48355548031328,-0.18646779323383422,-0.0014444264751886098,-0.0004158437589130183,-0.0017180710315697458
389,0.18933613356071977,-9.46214237561652,-0.21258247481565296,-0.001034945557898979,0.00044323625437834636,-0.0012758958355376204
390,0.23321466967048324,-9.448708251920246,-0.2186615062476433,-0.0010418154486692267,0.0010786858355216484,-0.00023383611181995473
391,0.2451832648290906,-9.460555187991517,-0.18518763954912065,-0.0010363206331833424,0.0010770167655855748,-0.0010763348123448322
392,0.2182737625494348,-9.480226894969574,-0.17380231100077076,-0.0010362400450228285,0.00021545258056381963,-0.0010733555838280523
393,0.2146952328796443,-9.459705974920709,-0.20249054626844193,-0.0004045265349788459,0.0006576488407439336,-0.00106729897514496
394,0.19156484441741228,-9.445231908819862,-0.22398307687543095,4.048249402622769e-06,0.0006429486013040867,-0.0006321687870698442
395,0.13786873466425978,-9.446019303464436,-0.21415669417580097,-0.00021334473271310194,1.2399701353014986e-06,-0.00022084128514321145
396,0.07252802715833438,-9.437986270373651,-0.17054205235610548,-0.0010299041827546709,6.0487318088400995e-06,-0.0010789387426596482
397,0.10090532047142121,-9.469929874948152,-0.16899524075863998,-0.0001897273190281503,9.529447181508626e-06,-0.0019179291314682697
398,0.14114576962693798,-9.479893515087424,-0.1648589001336713,0.000642059135403699,6.7185078601110615e-06,-0.0014702933182296285
399,0.19014960824998856,-9.475336973104346,-0.16216344014560455,0.0006289309682482798,6.79487156354925e-06,-0.001483895481941579
400,0.2274249972173464,-9.454518417277184,-0.16360094700009936,-0.00020303082221192613,9.474332943017544e-06,-0.0019046444151298943
401,0.21735390512564437,-9.408663789009454,-0.17073363961879132,-0.001022384756090729,1.3142004556690358e-05,-0.001065435332999455
402,0.2315425517821859,-9.463224530163787,-0.19386052369327944,0.0006412836729757166,0.0008692163680226363,-0.00020014824873640935
403,0.21938208018637634,-9.494302809614656,-0.18368154646278995,0.0010430329331685,0.001075944605563,8.804713214138846e-06
404,0.17668125259523343,-9.494155149886518,-0.20190776487947745,0.00019380276187160083,0.001515330049962324,-2.9111484352338078e-06
405,0.1262689200523065,-9.476794446677815,-0.22900653124789577,-0.0012596183567749341,0.0019323083926015637,-2.1804276124983677e-05
406,0.11527451367514006,-9.475617631678473,-0.1746062752957872,-0.002072074486192753,0.0010784868113978936,-3.6340170763415975e-05
407,0.13239874239855512,-9.45299956199879,-0.22157569668337024,-0.0003964788875242433,0.0010812920017722587,-0.000864500574076246
408,0.12686116227353503,-9.466595206459893,-0.2054653891959378,0.0006364280929585493,0.0004241098877884165,-0.0004098886642106543
409,0.12984537656323505,-9.474132128475226,-0.16963425460141807,0.0006178314872238345,0.00043848251175464346,5.902760296273681e-06
410,0.15951137387149175,-9.466825418774645,-0.15459057089205455,2.7947439776588433e-06,0.0008551785201076685,-0.0004437446100421632
411,0.22134166791033283,-9.465394381835832,-0.1973177729713198,5.502940263738484e-06,1.8879427597868378e-05,-0.0021129140244518585
412,0.20372817550910893,-9.470315768825586,-0.1671770479539545,-0.0008347545116231858,0.0008769628972467013,-0.0012769028641601257
413,0.20136241027630702,-9.48718928741105,-0.16179793179161073,-0.00040190011112266577,0.0010822957502978105,-0.001068735361086253
414,0.21279712030406503,-9.473715139749242,-0.17991878435664205,9.679018652595266e-06,0.0006444185627458139,-0.0014955693599698282
415,0.22469953548198884,-9.439925001777775,-0.21410377077484474,1.236952790778138e-05,0.0002337394342643637,-0.0019007991014874707
416,0.21271272146095999,-9.441972262120908,-0.2503848174054675,6.812477608747659e-06,0.0010819671700864,-0.0010638266763091
417,0.13296274197762709,-9.496562862470151,-0.21475340501313023,6.812477608747659e-06,0.0010819671700864,-0.0010638266763091
418,0.12171347961713977,-9.45500131739754,-0.20331322270089297,-0.0006324227401409202,0.00042374726073704657,-0.0004237680860093242
419,0.11023207761991756,-9.460368689097225,-0.17006183036959469,-0.0006165806654378109,0.0004408509789777816,-8.927427183357086e-06
420,0.09123707779111742,-9.519351484082302,-0.13142846016670698,-0.00021818041366205768,0.0008518222801915427,-5.5643502854204e-06
421,0.11014447772488639,-9.520938332645258,-0.15746366030001552,-0.0010334635790222048,1.0795881832884386e-05,-2.221068294471841e-05
422,0.1561352634391936,-9.490445826058679,-0.21382177468469035,-0.0001933724972975522,0.0008758368875594314,-0.0008633838513834253
423,0.19131840955284057,-9.466322246842655,-0.22237619419434645,6.873862448092434e-06,0.00042570477734751546,-0.0010615573669889957
424,0.1913122570669585,-9.467604106322696,-0.1772518642063652,4.040342730033e-06,0.0004441039927342514,-0.0006274169898696616
425,0.1745714284850021,-9.483860900001488,-0.13613629204239203,-0.0002188680083099987,0.0010769590976279914,-6.3508609289283e-06
426,0.19531610395930582,-9.479496657670733,-0.2093494505361351,-0.0010329605054351975,0.001077613578777308,-1.612820461253017e-05
427,0.15323942766749293,-9.48049318977993,-0.21035371463657937,-0.000198320276397839,0.001076942578493808,-6.104080326560456e-06
428,0.13914284755934825,-9.485603994260586,-0.22980042340703738,0.0006405377259719886,0.0010794343289716557,-0.0006428538490713762
429,0.12874395290263232,-9.479900062312556,-0.21904054395307246,0.00019125561541166812,0.0010796899853508818,-0.0006266887105281867
430,0.10997509770349931,-9.471876819153657,-0.19735122547246314,-0.0010432343713914,0.0010776218383444,-1.625159491371556e-05
431,0.08215389751013635,-9.489576056987547,-0.2396940587407096,-0.0010431618656763157,0.0010776762076733129,-2.7369974190472976e-05
432,0.1330373200025763,-9.506765142624472,-0.1976459439022478,-0.0010376304248285219,0.0010818240286618692,-0.0008755880383986084
433,0.17645156908255705,-9.476302919357357,-0.15530224789337552,-0.0010278113152386728,0.0004315024183280593,-0.0023695912426174946
434,0.2004653686736239,-9.440409916663548,-0.1453352982293098,-0.0005966756036990483,0.0004563402592184327,-0.0027546495567096927
435,0.21319643083245976,-9.430091654252848,-0.16414462023144222,-0.00020778574103442188,0.0006318373103028671,-0.0019021064994750548
436,0.23935131525195769,-9.46621407341867,-0.177208699566692,-0.0010479695352214726,-0.0010589430602475735,-0.0010336905596375764
437,0.24669027041913533,-9.484891736553774,-0.17569257438100466,-0.0019000735685497745,-0.00020915460252849836,0.0014987473167469645
438,0.22225202725534954,-9.455875960860832,-0.1285854834610925,-0.0014500432909983398,3.0316221191777264e-07,0.00015880596272373985
439,0.18573888943105135,-9.452588546827327,-0.14713102996541932,-0.0010362204555598,6.022564523355389e-06,-0.0010726313895232
440,0.15834598239985842,-9.46838563431582,-0.21185107439976775,-0.0005976341693733905,0.00023136178620625737,-0.0006193999226607956
441,0.16076359944314922,-9.431957378913916,-0.19522692466453395,0.0010238474473471802,0.0010581011307401465,0.001068804352724912
442,0.06291086388077757,-9.458042160712713,-0.15322675874714378,0.00018928780647020616,0.00019720794600196854,0.0010617594569557417
443,0.12972377831806464,-9.457377821731903,-0.16675830599260505,-6.913196720219093e-06,-5.1839481326892495e-06,0.0010601032354593
444,0.18918202984427102,-9.468008013987802,-0.15535535462912006,-4.063927185817119e-06,-3.0473872795614693e-06,0.0006231823760714857
445,0.20186288475136785,-9.479009470489242,-0.12226747634772722,-0.00021851840856308344,0.00023095638782878232,-0.00045373251955700407
446,0.2354286565215952,-9.441177704601047,-0.13934861600434514,-0.0010165460653591433,0.0010745624011198151,-0.002124089003085522
447,0.225643382965358,-9.467726072243694,-0.20255370838253672,-0.00018736188285000576,0.00020817550015857531,-0.001262071137188194
448,0.17277556336776936,-9.48864208061371,-0.21698121273444682,-0.0006321736193010059,5.6977352948640964e-06,-0.0010677787409650624
449,0.15544059790389342,-9.470285330190183,-0.21983841308813226,-0.00017784578122145942,-0.00044129319312354254,-0.000623153206566484
450,0.17197020473092256,-9.43919737618741,-0.2176599853707302,0.0005989915428741796,-0.0006187357177696448,9.331141858899169e-06
451,0.15479558415231118,-9.469274749790541,-0.19289665237949336,-0.0010434148063583899,0.0010774865368987664,1.1417181201979337e-05
452,0.07553486834680309,-9.445212580371754,-0.1672764613997203,-0.0010544828818952055,0.0010691870002540874,0.001708649758504349
453,0.12378148180188844,-9.427138619774782,-0.19499338105342928,-0.001061245345238413,0.00040367914520399065,0.0027573946515766696
454,0.14413034061324412,-9.450025983046608,-0.2001160965015617,-0.00062404280844081,-8.633233061860462e-06,0.001858718055533855
455,0.12072733054639156,-9.485373109809307,-0.1806764652629284,0.0002256990795237525,0.00023198860838765016,-0.0004511131749113915
456,0.14925960681699932,-9.455058681746506,-0.19397495062427864,0.0010425927355122231,0.0010863288440806956,-0.0021125685811495547
457,0.21482093964378832,-9.46290310394187,-0.2309918741796011,0.00020795250647466472,0.001086999844364116,-0.0021225927054355047
458,0.20905393962102897,-9.467375500133732,-0.21193424769185984,9.545738213245006e-06,0.00042289171837249766,-0.0014711900663563072
459,0.206468189493327,-9.475396432347866,-0.18608076209833588,-0.0004250132681936433,5.531190897072824e-06,-0.0010652907215354026
460,0.22492165116137686,-9.481889832730646,-0.16354034397979478,-0.0008142681796249308,4.732566921251318e-06,-0.0008428801074803834
461,0.23676675069182007,-9.472458079711325,-0.12516385486415077,-1.4842051050256542e-05,1.550779734429847e-05,-1.5415407627519406e-05
462,0.20056123853374846,-9.458213801609629,-0.14941338352320613,-0.0008440314274003939,0.0008818908036378188,-0.000876636824638144
463,0.15496065138411697,-9.465872223645903,-0.14972124792180777,-0.00040798482435060206,0.0010727295873245299,0.0008865030846930386
464,0.10246619111137795,-9.480654265203281,-0.15458180480503134,-0.0004436152051249841,0.0006223624117022553,0.0016737838967082798
465,0.06774497769057973,-9.487984957330674,-0.18658062234319459,-0.0008229769050720347,-2.2981275401349633e-06,0.0005947761329728968
466,0.09338388530621519,-9.473803745594926,-0.26036550252318963,6.91168987782078e-06,2.1293528419168483e-05,-0.001060158941257913
467,0.20640379488073593,-9.463936244469636,-0.2124065825290738,6.831101717249772e-06,0.0008828577134406423,-0.0010631381697746918
468,0.2569755467412579,-9.4605141483619,-0.18573838113934754,0.0006486274019521658,0.0004189965111295642,-0.0010538284281243857
469,0.2374746384163528,-9.473845892393651,-0.18880676569024976,0.0010471754926749829,2.1922088290150836e-06,-0.0006072673259940505
470,0.19995913699174933,-9.483023257448995,-0.20872225946465406,0.0008198571389264559,4.5907774479185746e-07,-0.00021859389673262443
471,0.24070312720886072,-9.44551457058831,-0.21471127107423907,-9.46890962343347e-06,2.1913779346794644e-05,-0.0010438193444122883
472,0.18981970471642745,-9.500095995455787,-0.17165624189170886,-0.0008497211676693085,0.0008800011436633544,-0.0002086046330069932
473,0.18977518198518123,-9.486555306272983,-0.16976499980712395,0.00023734709177045018,0.001073396343003928,0.0006520497736947152
474,0.17034855230786744,-9.458520647768093,-0.17839723259243861,0.0006050694370152912,0.0010732659430838479,0.0006227113124706854
475,0.14210175992911683,-9.453708619092343,-0.1845337006803284,-1.5729704152131069e-06,0.0008429582219683858,0.00022618119900401435
476,0.17517850977325888,-9.495719930889296,-0.1886140156497467,-6.913196720219093e-06,-5.1839481326892495e-06,0.0010601032354593
477,0.15169385323829046,-9.47803055748146,-0.20298188181312482,-6.913196720219093e-06,-5.1839481326892495e-06,0.0010601032354593
478,0.3415771396303872,-9.460652122234116,-0.19555950718492152,1.6106971077140567e-06,1.2078016295184557e-06,-0.0002469921346572783
479,0.6579406852380076,-9.453072875854085,-0.1803177080579708,6.87123490511191e-06,0.00045379571416235084,-0.001061654503478043
480,1.0605906775743872,-9.46041208987012,-0.16423246969634425,-0.0002282787263289462,0.0010754061615626735,0.0003123376554032164
481,1.5369377837321183,-9.482643257086087,-0.14978738486186602,-0.0010612515259029102,0.0010508953886567013,0.00544655137391924
482,1.8906754227901381,-9.448611878659369,-0.1640234082120062,-0.0002764098460190412,0.0010128823154734892,0.013092927422738446
483,2.4836630333747096,-9.399717541960493,-0.23725298856715943,-0.0008132704387626946,0.00161545061791136,0.025955955180878124
484,3.1519313541578127,-9.422295688787383,-0.26858490583586847,-0.00045354016752336703,0.0019442123780317915,0.0430379496029322
485,3.871635445961582,-9.502062813366255,-0.272942052928944,0.0006198998901053252,0.0020706200004674976,0.06487073200821122
486,4.713131021013238,-9.545352865457305,-0.34631894175388594,0.0004365047855642396,0.002832467289892035,0.09297742117146301
487,5.3124790263326656,-9.448321326276153,-0.2073846153952662,0.00022048481393664113,0.0052561648601827824,0.12605694968148975
488,6.173234603831304,-9.269604709621795,-0.21191492676157203,0.0005771146996662029,0.004962809614839064,0.17028984647842188
489,7.186025816055581,-9.28087976668704,-0.3079578301942407,0.001951105068949037,0.0038498153119433374,0.2213704551621226
490,8.286763282859846,-9.45435445935082,-0.3931408795330048,0.0038512163583878664,0.0022341780696953127,0.2791697475878899
491,9.441899821687233,-9.526692067866362,-0.3342129602678684,0.005063584171732094,-0.000623154973321872,0.34651304392558996
492,10.701753792052564,-9.109924335824825,-0.4880335042407092,0.005378139115046336,-0.0010138185132185134,0.42627547730758486
493,9.437474343332362,-8.890006255891686,-0.1705830298328921,0.006932156623159693,-0.0014439985356429334,0.5139222176441678
494,7.602197967084276,-8.642249355794716,0.006660316187184441,0.008370094679574119,-0.0032704431459095826,0.6105422292684501
495,4.71688502175211,-8.659334208254945,-0.061885905454988274,0.008693477396738956,-0.007059448123092699,0.7120658315118967
496,-1.2892990086006024,-9.552784728059345,-0.1047672785483718,0.007298566295064224,-0.012809576394882607,0.8100936055674925
497,-3.7556772084501797,-8.966131974752045,0.002425197125024932,0.00927300401743765,-0.02268951507864266,0.8916061090935758
498,-5.227635950401436,-8.553353940367876,-0.49559001830953875,0.007936083992563202,-0.02480833482601879,0.8863985692620306
499,-6.531495658171732,-8.749290603705084,-0.5032208243891457,0.00691346786488398,-0.021519356668528854,0.8602744758239353
500,-7.313841956404813,-9.142920755108076,-0.03658954549655924,0.00763428294917271,-0.015053306759323475,0.8198280056827851
501,-6.41174378692789,-8.734265044609968,0.07923281998544934,0.00988504276701981,-0.007829234305135426,0.7306775831855273
502,-5.199348393310306,-9.00228172050861,0.17653341263116262,0.012151622424059375,-0.004797001052726814,0.6390588394478718
503,-2.0608580530638014,-9.466138638033604,0.13567363323888185,0.011541269442187543,-0.00331635458876887,0.5920956961722084
504,-0.08431976966871378,-9.584945760955463,0.07316024904754151,0.009315153110759918,0.0032131194358731878,0.5429708757865883
505,0.616409034237269,-9.347938295823965,-0.04043860155905628,0.005551700663118225,0.009169519690954421,0.5022751899393668
506,2.0712316479151434,-9.140546774860207,-0.33996107172827256,-0.0002619832997100109,0.0007933610986617694,0.5201797155662653
507,3.6305149891015356,-9.22067007293585,-0.9029399687088269,-0.00041177157596154057,0.004989972574861501,0.5430722795021073
508,3.347443551708957,-9.059371331189732,-0.8591621998336526,0.0013167065094379304,0.0011193816772682246,0.5758831557940668
509,1.925928161267125,-8.94453256642547,-0.5248194260397235,0.0048760439513590645,-0.002395020345168427,0.6160329066847756
510,-0.07147999957487883,-8.992847408468151,-0.12536968886346975,0.00937313741328066,-0.0044218963543491046,0.6592788893609283
511,-2.0856043503227726,-9.17911766263137,0.1613931375305339,0.01317447210828791,-0.008887907663368501,0.6999794409778375
512,-1.7548621041219559,-8.821143138538812,0.010737070040672456,0.012931268225041623,-0.011655960058396033,0.7373195336725791
513,-3.0276360947196825,-8.947429152260009,-0.08112695877936615,0.012310206183260966,-0.007532285271890751,0.7331459826430189
514,-4.150995933792974,-8.998509154960162,-0.09969658823612816,0.009724525192895276,-0.010564159353326285,0.7321867471632815
515,-4.134182040308186,-8.85458680876615,-0.1794731687265244,0.005983177292865583,-0.01654466547859423,0.7366788640909203
516,-2.607321709683671,-8.722040629796796,-0.5458176885696,0.0036135112178664977,-0.00877009506637416,0.7192231995578171
517,-2.2452665881029077,-9.152057031670415,-0.6828112180931614,0.0021595252866345974,-0.0034367550099928205,0.686096804147768
518,-2.111652129199481,-9.171985931784771,-0.6171313854103861,0.0038964897379930945,-0.002830673159288222,0.660935007265934
519,-1.6642990304629652,-8.983074401854482,-0.46510862617461507,0.006943724763501036,-0.005434464742239867,0.6452271511195614
520,-0.8818754230510941,-8.830226080945948,-0.30299398683568274,0.010114190281388257,-0.007070489452534206,0.6357023034893589
521,-0.1661396107793319,-8.988974700855383,-0.1751611261785359,0.012592433050734817,-0.0019712957070004778,0.6256260748680837
522,-1.3222696814489043,-9.311817905106727,0.13715425324284436,0.011801974072331693,-0.00107506118399631,0.6188257313064448
523,-1.154288783176617,-9.085651040812605,0.20358624747500934,0.008977973003351828,-0.004263815792629413,0.6252118804385067
524,-1.053819449096186,-8.86045248471607,-0.019555369025899327,0.005575132985109083,-0.004068416822802036,0.6349041907433515
525,-1.164105979189499,-8.884966551344226,-0.3327595260632805,0.0028604688010759795,-0.0019677315157460118,0.6458491334296477
526,-0.8295883774402716,-9.165366564485574,-0.3778375458880998,0.001975022887651559,-0.005464299189248096,0.6609306941413174
527,-1.995992985343551,-8.561586922937174,-0.6703463834560888,0.00275457489116914,-0.008091152638484329,0.6694342259398925
528,-2.085262224732398,-8.677294802531351,-0.3877097846351497,0.004825313853425439,-0.0073719534184184705,0.6792624188355451
529,-1.808277735404183,-8.718336434006623,-0.19575470015907992,0.00732434735586701,-0.004287231476703126,0.6800435474099902
530,-1.734133709238095,-8.697779171386095,-0.15262823741078757,0.009173395137153999,-0.0021098944448618706,0.6733686833840373
531,-2.306250985519989,-9.139225239649026,0.08751701290893728,0.009176780175234944,-0.005462038623696796,0.6691874994823837
532,-2.3449028160671195,-8.819711280067356,0.17887729579927364,0.00835882005074265,-0.006310484450801609,0.6666350039451041
533,-1.816220272690652,-8.632561719748644,0.04313484873048116,0.00754923378767265,-0.00446623534551131,0.662750601253556
534,-1.4128443179472017,-8.680286299982964,-0.0821666556733077,0.005445164079622882,-0.002292466011499005,0.6539830446385053
535,-1.383350940991793,-8.913765027489085,-0.2369649905498324,0.003575661694845019,-0.0019616283971371504,0.6433684220819867
536,-1.6722302116764092,-9.160683255083434,-0.6194783445416958,0.005252550286043995,-0.0053093995173626755,0.6384610327715142
537,-2.2857668636524795,-8.978502523654715,-0.3729868766154169,0.006088054802987713,-0.006171635332715052,0.6384740455366402
538,-2.3714624494405436,-8.773145823718384,-0.19607529832258996,0.00818182946646677,-0.0057231083734011305,0.6451166683271948
539,-2.0037583203430955,-8.672205275540165,-0.17157001513614312,0.00934942590143283,-0.0039546119493038025,0.6464104549108474
540,-1.5425848853345363,-8.80471995377875,-0.2242147515607061,0.009362321538923147,-0.002567816655657453,0.6444084621111057
541,-1.5581829439173733,-9.257940740161532,-0.163209811465811,0.009298145576242334,-0.004293561655081831,0.6503531410983088
542,-2.3449189378387127,-8.887540366259193,0.2079060376575062,0.008424855537418108,-0.005184306356530259,0.6562852183471659
543,-2.856957714790715,-8.48595982318391,0.3279106326054352,0.00825491335793116,-0.003344331047666865,0.6542650821025491
544,-2.8229085943962393,-8.407034276119857,0.15357515178925638,0.007366736422861274,-0.003963159294102653,0.6545202659405986
545,-2.730485765137484,-8.608535729179792,-0.1602341370365286,0.006155090203868782,-0.006206422563128861,0.6563695401892276
546,-3.5093064687305096,-8.770282215237232,-0.322805296667261,0.006235041863415725,-0.005297140761329125,0.6521511380796352
547,-3.1262130090038243,-8.66742046834214,-0.4077984017329312,0.00792629202673252,-0.00355795023277552,0.6487715563680572
548,-2.740442432420277,-8.378578465346596,-0.03735109417344841,0.008312833161981741,-0.0031652697057667828,0.6453809632030336
549,-2.684672677247495,-8.28549770981895,0.15125675961432028,0.008308606153976305,-0.004543698975834962,0.6460536329521048
550,-2.956718843649526,-8.493642308130273,0.029654628775455383,0.008056562351755678,-0.0059259822358640685,0.6486227271715032
551,-3.305034485248849,-8.886257225903524,-0.17332695467051484,0.007206583245634656,-0.004220349400994679,0.6467997540090294
552,-3.1386848347928176,-8.460005496771142,0.09927824669799293,0.005569637532422526,-0.0033325478700924113,0.6416858158365959
553,-3.0791464246488847,-8.198032217957673,0.1478695760490187,0.005880303854785638,-0.003804367948359571,0.6385924570926865
554,-2.9226411149175617,-8.260559067960326,-0.1013867914817796,0.006246221863053372,-0.005603036412943425,0.642385444036073
555,-2.9744399490702795,-8.572540156863852,-0.33577166481958115,0.006191727172794852,-0.006766742824366647,0.6507619118183768
556,-3.8048196167297026,-8.87174999996207,-0.022833671059074516,0.0061840233370610495,-0.004207558014427633,0.6561304632088398
557,-3.7226233188573246,-8.439626073623002,-0.1287533588159153,0.007090346038492151,-0.0015687941223372958,0.6451023226688151
558,-3.272912607736436,-8.441325533744688,-0.1215703227820572,0.007936378643727478,-0.0030258273125559417,0.6433914598362698
559,-3.0472510124190966,-8.672258671215788,-0.19322943681759983,0.0083173894313157,-0.00423871187694614,0.6447014508851232
560,-3.316719116089913,-8.863070765714514,-0.27755958185618157,0.007835910668304528,-0.003999875057127442,0.6459106944706616
561,-4.103979760097803,-8.702415270935791,-0.14717996749794562,0.006195923370186397,-0.0031945129394720865,0.6457157726405963
562,-4.51545051313763,-8.284704047219538,0.08270362611239407,0.005393779062332901,-0.004030510778896721,0.6406178170494816
563,-4.138203830518958,-8.097230865837291,-0.12524853515877882,0.005216298996878186,-0.004890440930790186,0.6401844215215485
564,-3.4282100196798995,-8.43037679400615,-0.3017152837995788,0.005660102839731696,-0.005294364076373396,0.6405862110661521
565,-3.06134816033313,-8.900860963543034,-0.3253007696625546,0.006742130916005787,-0.004797736852570915,0.6391494143907513
566,-3.806014853521878,-8.695789028251832,-0.2891885649759516,0.008357066394889768,-0.0031402513305941043,0.6341608867639412
567,-4.414658868719809,-7.975327912873752,-0.014429108557853315,0.007539106270397449,-0.003988697157699027,0.6316083912266612
568,-6.197215802446876,-8.43470772751473,-0.09926664973905591,0.007979267077977007,-0.005554121848474821,0.6370647329038948
569,-9.757876162424592,-8.550637676375281,-0.15192608606122301,0.007468908277526687,-0.007281261603243189,0.6378910729041442
570,-14.136785439591318,-8.063717437004893,-0.08998567957159682,0.005906896090307666,-0.008430975259896625,0.6214096242993061
571,-17.312089170873406,-7.563353751361205,-0.0237070537050696,0.004656011677614813,-0.008357096215223769,0.5752812979494197
572,-18.22505519367018,-8.293146942593216,0.09272902506941398,0.006829964696915965,-0.012290332549876343,0.4981092987314955
573,-17.750725684502324,-8.434675646226054,0.19325280437161796,0.006626574857157964,-0.006555833939100429,0.38287779571465097
574,-17.210720590118527,-8.301499180862692,0.3092387104049856,0.004613899323293078,0.00010513357706285614,0.22952053116974597
575,-15.928857679594923,-8.258066096866834,0.23095360248107996,0.0017777453566292908,0.0042552167241256085,0.06087776175345487
576,-12.212784942498136,-8.682154316330593,-0.34896552360564215,-0.0005842675453639743,0.005860945830887229,-0.08440493543413322
577,-10.976904892345422,-9.017018249544229,-0.23771025900752862,-0.002408594563173827,0.008097207317905449,-0.18879808318459051
578,-9.706778568298944,-8.396557019716855,-0.12879005608455002,-0.004337040213769593,0.006865926192343375,-0.2771648400922247
579,-9.221369829062287,-8.15355094357063,-0.024828021344773465,-0.005537002112668402,0.004125431787699031,-0.3397674831439119
580,-9.64281553747535,-8.485954222827337,-0.057035647797309554,-0.005812558587538285,0.0021543854262636806,-0.3887525485268539
581,-10.596539673294377,-8.849417964530742,-0.3981173292400306,-0.005478838715529325,0.0032488485355515787,-0.44943407812100017
582,-11.083846296394972,-8.366842439136374,-0.21037081525899565,-0.006822384173709947,0.002633410734149903,-0.4995087655238376
583,-11.196372472201286,-7.769594909839526,-0.09228398741894747,-0.00879626358457662,0.002038096371305289,-0.553598600068353
584,-9.510731255553752,-7.783371310122815,-0.08499287877849893,-0.008635333504780964,0.004272042694453752,-0.6183322832275463
585,-6.512546836776529,-8.232471544801829,-0.1109131206797162,-0.006464942077863909,0.008955227981917892,-0.6951971563912278
586,-3.8420714146536827,-8.390678530175357,-0.01776710255024805,-0.00437435612967975,0.013477309719341368,-0.7791304349803823
587,-0.1999925970223298,-8.530603991119802,0.21029313902259508,-0.00592815347233005,0.012704211879031329,-0.7969640750055622
588,0.44350026330790115,-8.763682714921234,0.1572795202705932,-0.006793819485136374,0.020102999260210117,-0.8194990215958704
589,0.07279010077584855,-8.677636185175635,-0.03554128128409114,-0.008601764407092472,0.01978690726200075,-0.8081109178564321
590,-0.23087188188188806,-8.480468842572376,-0.27990740568663464,-0.010239745455169633,0.013153791021724051,-0.756252359620086
591,0.02878514151142221,-8.728340236591622,-0.5112712625965407,-0.009097663708920315,0.011685903397657781,-0.6802028251574724
592,-0.7491441062096618,-8.749233819290394,-0.6365712753958662,-0.008566685777505816,0.004562912381904116,-0.6335050213455012
593,-2.1434542827897616,-8.609779049419798,-0.43810082190722743,-0.007359956251004544,-0.0011882022532536925,-0.5894817764853643
594,-4.069604859959962,-8.730939272868252,-0.2812757236429944,-0.006270016623731134,-0.0036702236437699013,-0.569514345033853
595,-5.776611295213948,-8.744182698824527,-0.25583441867854195,-0.005196708044177233,-0.0024269339768727594,-0.5690147806162411
596,-6.13219677936622,-7.908834150855453,-0.27210088923138637,-0.00366561491856697,0.0018087059541919254,-0.5680838220943428
597,-5.460927013408328,-8.394792253866667,-0.00716976493064362,-0.005218945795942469,0.004482677099044354,-0.585930168867552
598,-4.810133928908611,-8.864065096624243,-0.026319004901541775,-0.006017442259523008,0.004505540024140246,-0.6184980425851805
599,-4.378215604817002,-8.865600740573926,-0.0035553085440034188,-0.006650426851410412,0.005191607494206453,-0.649495729548514
600,-3.9086578100691125,-8.58397704671234,0.05506687162479876,-0.008049785659224333,0.0062882421613663815,-0.674342541083881
601,-2.911208087426285,-8.573261493013824,-0.04098041089455449,-0.011151676555569012,0.005601041099409339,-0.6953164329341878
602,-2.1391500038391973,-8.502228734929476,-0.06893606963711336,-0.011892342102989728,0.006533804820190054,-0.7097523291740734
603,-2.0001905416774393,-8.585272217051894,-0.12463469812238182,-0.010671440036423722,0.00949559727655232,-0.721489592846874
604,-2.0552450699827283,-8.662125112351609,-0.06275489838570612,-0.009479708475849766,0.008728408272744959,-0.717364823468241
605,-1.8728389603326905,-8.655183632560696,0.09625015964024353,-0.008275771344585544,0.005333287350630794,-0.6993818745301412
606,-1.0930943544656915,-8.55141229258134,0.20296410979604296,-0.0060041977049948856,0.004477984225625591,-0.6794753500011333
607,-1.1508274684474737,-8.682190614737777,-0.39816339610492174,-0.006059683753146137,0.006160435576903136,-0.6709975377157131
608,-2.3455729153218323,-8.861951072704784,-0.2228514520975211,-0.006119423117224661,0.006475522191279311,-0.661843218797435
609,-3.4309787188272027,-8.805102820192069,0.11906464660219086,-0.006668025093738131,0.005003350787229678,-0.6469984312830797
610,-3.6865933228684233,-8.507820742093843,0.2938771618060081,-0.007350842823418425,0.0033548840713096798,-0.6329299975084723
611,-2.793453065087452,-8.17506218244168,0.13192660020058242,-0.007354378994949718,0.004249956098612394,-0.6324037233296743
612,-2.466135664631329,-8.648840142674082,-0.24860031674824426,-0.007310278332475705,0.006007083806354574,-0.6391970219955427
613,-2.2771645623906847,-9.070877412363025,-0.5173432276650728,-0.008548835510450183,0.007111802930886632,-0.6520522628900483
614,-2.690147552047132,-8.95998171645252,-0.4550725647922194,-0.008826156398351593,0.005662771115572842,-0.6572729673936493
615,-3.207004242388105,-8.532905089294887,-0.1294120822508676,-0.00798692205536576,0.003982622652162868,-0.6579374708671819
616,-2.816365305830892,-8.429585468738392,0.20152721869976914,-0.007062019812225342,0.0064982738041658925,-0.66634775107012
617,-2.3442258567425887,-8.9559163318258,0.17640489697075795,-0.0053476937399402815,0.0065301215307952765,-0.6731150308206605
618,-1.7902362653503765,-9.049597618588544,0.05345119192157021,-0.004979355500808934,0.00586349172224892,-0.676532648316642
619,-1.6003887119439564,-8.886477284398945,-0.010402796925346364,-0.006340940512933256,0.005469826015916942,-0.676328433861047
620,-1.4095261048698844,-8.727268878225495,-0.004272789567759982,-0.008362778060289282,0.005718956822731122,-0.6753009875598266
621,-0.5273751530266596,-8.869695601091193,-0.008711436579806886,-0.009110037820774556,0.006517441551761954,-0.6776002307076564
622,-1.6913334425414137,-9.026879224841782,-0.17940669129589032,-0.008297447960808575,0.005638611187834797,-0.6741935586491339
623,-1.7711411347095751,-8.980843609098711,-0.17861341649979623,-0.008191122529400447,0.004042958809590537,-0.6640586624463655
624,-1.4432156832917191,-8.85252386318589,-0.12651156897401372,-0.008692384487088482,0.003690000253353954,-0.6567991410306229
625,-1.0974885266808578,-8.806933892105851,-0.11134722118608457,-0.009061680818781436,0.005039734638570774,-0.6529152564729744
626,-1.0003416502347797,-9.024921065705637,-0.19219333384982257,-0.008262166634471317,0.007293299623547693,-0.6475594281608426
627,-1.721516311329435,-9.365322853870431,-0.1390679828451841,-0.007499047701506301,0.002930065360846854,-0.636505280915211
628,-2.2440669028302613,-9.173751345874749,0.11110468503971327,-0.006652929686011708,0.004106513939521127,-0.6382761160867998
629,-2.1486943840947474,-8.90888843500619,0.18278162116778218,-0.006218740854127642,0.005793474578897052,-0.6466025387231584
630,-1.53019943318805,-8.761869307882034,0.04233782971172815,-0.006658636306888352,0.006440657350161064,-0.6546384474535737
631,-0.8336392367658753,-8.793993998690278,-0.15129745090610788,-0.008249912407829699,0.006327549958990469,-0.6550849869949803
632,-0.9906928773434767,-9.376564843831126,-0.4448877239182855,-0.008304995363838785,0.00370056242424952,-0.6465922729721788
633,-1.422831402258768,-9.25476967150361,-0.23876368611286058,-0.007626319765174652,0.005238073961513769,-0.6489004502884707
634,-1.261023057146541,-9.0307811967883,-0.09060869209700956,-0.006755575663312901,0.006439795848788795,-0.6544476905800114
635,-0.7081073818878874,-8.98108361131419,-0.22189173514899124,-0.006640460259512677,0.0062005478309090185,-0.657625552416932
636,-0.5670940361984631,-9.194629639574663,-0.6174363852645727,-0.008255765492992367,0.0053627912501406725,-0.6541703517436366
637,-0.9227887299676721,-9.515743682085516,-0.36901988719248174,-0.008288964525761588,0.005337896534874201,-0.6490794504606153
638,-1.5339811573076791,-9.309437910538831,-0.19670447107947103,-0.006949351910124326,0.006030809538355008,-0.6507291016219969
639,-1.258118136255114,-9.00153704024445,-0.12682985147279208,-0.006203063274225602,0.0064128035600512,-0.6490174299996528
640,-0.44094103196654044,-8.822704236669045,-0.07584406258980374,-0.0067332716090734894,0.005364741322882087,-0.6435841876463113
641,-0.2535128650047457,-8.899158034092554,0.06880526716203268,-0.00834844002140962,0.0021823295578726454,-0.6399038128886395
642,-0.8151875671325934,-9.283751219348979,-0.297913657533249,-0.008298883312407189,0.00480517316629192,-0.6475491052961175
643,-1.1117513670079213,-9.247559508741908,-0.27779113669716243,-0.006271096041604225,0.007412540636576202,-0.65246555075939
644,-0.6442995562094167,-9.009748870444273,-0.22864430379871786,-0.006058781410638292,0.0066909019888714664,-0.6511328126997913
645,-0.0506153070924345,-8.933896691695457,-0.16744959312384766,-0.007269282541569724,0.004241602505667141,-0.6454515431716075
646,-0.5016958968036765,-9.394621175174382,0.04452588454673484,-0.007260517313064456,0.004218447734996535,-0.6407224908037018
647,-0.5496437372292527,-9.23290697775064,-0.023452003011883472,-0.0064092775676420416,0.004230224092346355,-0.6432579173209273
648,-0.6053967715629595,-8.931213284758257,-0.11531054852161711,-0.006854421860295173,0.006331862574230596,-0.6512303658060357
649,-0.3500574645496042,-8.90523117929799,-0.012543111717989178,-0.0076736888074197904,0.006569110376855627,-0.65360180970433
650,-0.02050532624045539,-9.141003419699462,0.08348594737130399,-0.00804434346277957,0.005077546713866742,-0.6484369860688531
651,-0.12710259241049393,-9.371106869031191,-0.21021666190627106,-0.007226982799412661,0.004254446359252585,-0.6395821875762582
652,-0.2807313872433721,-9.262025198982407,-0.1837794941081901,-0.005551467864574803,0.005119624715103822,-0.6404133300054852
653,-0.38201302620974675,-9.04969966683726,-0.18431697560221438,-0.005863190779522502,0.005995707069085604,-0.6433015360981711
654,-0.07092183977062724,-9.019395284252491,-0.1719062887355762,-0.0066942138280231284,0.0054423580516338756,-0.6439105680816087
655,0.4042013199611965,-9.159152142607752,-0.18111338616506104,-0.007794220252327762,0.0044801796470979975,-0.6414626098417218
656,0.48010701557934965,-9.295940981995706,-0.2649815637973517,-0.009365998102463632,0.005324844643662525,-0.6376167604376499
657,0.2917404996217905,-9.426269248256013,-0.0736300321496158,-0.008509307504354215,0.006202333007022473,-0.6410033842475993
658,-0.011201069893094467,-8.948044972502071,0.12970360931481476,-0.008346103551010339,0.005683260416569039,-0.6403243843859787
659,3.254197372681921,-8.726634227851434,0.014088218910116038,-0.00836303655110708,0.003387806401427766,-0.6376871624199194
660,8.215844026631494,-9.102721344334629,-0.2852444435336444,-0.008375573471466467,0.00716151571775051,-0.6358320297912319
661,10.261973364139148,-10.035186857844408,-0.38809510872712794,-0.008262935393224449,0.025989754016247205,-0.6342943933396259
662,12.579126142255422,-9.919912461533285,-0.3230768828460019,-0.0061771928342246665,0.009298663679184548,-0.5697271903681128
663,14.032780237371718,-9.319599971167467,-0.12205110354515046,-0.004805445749143141,0.007053204919756518,-0.4984300608238494
664,14.795993728674736,-8.966615223571308,-0.08264697551814842,-0.0034475463312958624,0.005826036465676805,-0.380153848022866
665,14.367782212773593,-9.116290634916234,-0.25984815900445135,-0.0024867579950013223,0.0021987221773734477,-0.22026949950513808
666,11.934960397304787,-9.70552846972543,-0.5474889885547514,-0.0027092709516176494,-0.001899925260180729,-0.05160407838414796
667,6.994375778760805,-9.743475710848545,-0.42993362827492815,-0.0019078611482320786,-0.0025526393620356946,0.08161966621064433
668,1.4864320622991718,-10.019777670173454,-0.18837223160820243,0.0008948784854522474,-0.008731392795488744,0.2155658736952245
669,-4.507430315591699,-9.733795093160298,-0.18723088798726867,0.004049430765656491,-0.016048550522820015,0.30153143479739336
670,-9.184866396160238,-9.291996487505084,-0.33916604133008355,0.0041657356189089756,-0.024395321902593574,0.33314762129747355
671,-10.095221049483753,-9.640189161740198,-0.3227389258921586,-0.002117926109815134,-0.033781872771543243,0.3253461504115398
672,-9.865756384589924,-9.559497294828281,-0.10734801732591191,-0.0015446924379541064,-0.010082498373929773,0.2370295088622015
673,-7.8328949527730805,-9.139332666196315,0.09873692129370645,0.003307455410581178,-0.0020792929445024554,0.10868786205764022
674,-5.30951670682702,-9.00299958663118,0.21861753526946948,0.004027936530154361,0.00337928565083191,-0.010895881905665206
675,-2.533389806229235,-9.182099144206509,0.19720311445090308,0.0007621499390069736,0.00912684995030407,-0.11173056128300321
676,0.730382284599449,-9.381222332100565,-0.003082674997389366,-0.0019969752941852268,0.012921864062981594,-0.20080409089709353
677,3.7525640224424066,-9.24311120971377,-0.3815062275186469,-0.005164964869389905,0.014776290672191142,-0.22715128684512884
678,5.137586978339426,-9.32365784710009,-0.3514837860557821,-0.007854955302395761,0.025477200958085193,-0.2242468536490335
679,5.35461779289229,-9.468604742717687,-0.28428225943606317,-0.009659059050796226,0.025379723699931273,-0.19017227587713809
680,4.881767130148268,-9.529977936689642,-0.2386426922944866,-0.008335074749802676,0.015542440774755046,-0.13332754194363003
681,4.231837696471441,-9.38693501538678,-0.13366645941238495,-0.0014640358449830094,0.00760177592368647,-0.06855312619526192
682,3.325232101486097,-9.380832662812983,-0.1918675906404573,0.001433951812471636,0.002096180124314357,-0.0006209593443149541
683,1.034499011249644,-9.56351580119738,-0.012213290037165488,0.0023721848967780445,0.0028625042415416735,0.05908773115629541
684,-1.2486993281848355,-9.602437770665603,0.10303304376371161,0.002922972313419006,-0.0028741038253476117,0.10272343872635753
685,-2.788138060211963,-9.46789664057829,0.08915192690584546,0.00284844601079113,-0.01243484466828686,0.12572328201688876
686,-3.2565227240709897,-9.301091387843144,0.021700367124626314,0.0010400095431281988,-0.015048729623039771,0.1264029543406508
687,-3.6073247810619886,-9.379363928686406,0.22772083942491753,-0.003025227558472837,-0.0028972590616302943,0.10934195452827326
688,-3.676069457883627,-9.114077224510542,0.019335878152022284,-0.0022612266948854646,0.0010324784535020598,0.07258373396837464
689,-2.962086145546629,-9.104302467343878,0.0008124836159562887,-0.0012580482005366232,0.002471953674669986,0.0328966600740352
690,-1.8560194957923328,-9.474888584652934,0.36885371276272727,-0.0007569172836117703,0.005355271445080563,-0.005030207058484132
691,-1.0801381558312309,-10.01042954184299,1.0086083818237932,0.0002698242084941455,0.012003736167588423,-0.04158622377431891
692,1.184174145081975,-9.14993842129703,0.3159123582813588,0.00041929005643376907,0.011254190411930744,-0.06449070742162503
693,1.4158137585446258,-9.079394225892344,0.267882907368578,-0.0001881169946772654,0.015989723511880063,-0.0744484134901112
694,1.1159857257085721,-9.459073033152123,0.183523134347152,-0.00243943858635124,0.017221074927189692,-0.0704359733664514
695,0.9689313238101975,-9.796237693782553,-0.09513552660689584,-0.0043463910058017035,0.01614334423067394,-0.05565605653351203
696,1.2657759209414499,-9.577280867002791,-0.43690906072521246,-0.0027619365206817074,0.018198596023853233,-0.03556474294570801
697,2.0021177560483205,-9.574097341424995,-0.3086328070062576,-0.0004503957034341489,0.01288117951576256,-0.005821982704766335
698,0.9662851616628549,-9.40712380321089,-0.20525561201329967,-0.0007802386166199288,0.008990901966660447,0.016364865561463993
699,-0.4157898459241802,-9.214816663005578,-0.35170502985106933,-0.0003464474949158976,0.006408504578735706,0.03532777508578392
700,-1.4220472890939377,-9.071353655458847,-0.49864489620371844,0.0009820201528283861,0.005410651592276659,0.04849164568513033
701,-1.6613662066647774,-9.051520604263942,-0.2272666867968544,0.0015703343208189272,0.006117927783952932,0.05037389564189832
702,-0.8589737750530935,-9.679011734468284,-0.33163347828298206,-0.0017087713119831832,0.004442313409558822,0.04100695352158795
703,-1.1767304606354765,-9.394685791912774,-0.03314004461275849,-0.0015853410096673603,0.007655609823698108,0.02619010814557719
704,-1.145964206617288,-9.28176655686704,-0.05976801078788778,-0.002027331200852517,0.010134460987533348,0.008165979265966726
705,-0.45334333142686495,-9.400918621909083,-0.3175326897638776,-0.0030595165587923995,0.01135602158202317,-0.011105354137284548
706,0.5765933208243225,-9.347560181024154,-0.3202299333706168,-0.002799226187724061,0.013314686948963334,-0.029146681676785923
707,0.8305211696086021,-9.384839459657337,-0.022120043623093357,-0.00024512626818532694,0.017658645296527782,-0.03676785075611626
708,0.6484260361427436,-9.238530958469998,0.00548171419634517,0.0009031701693017673,0.0177866083966331,-0.03548637193079737
709,0.7778474789854279,-9.389952565702378,0.16339700673335988,0.0012073283234934123,0.01687577416990113,-0.025464095839754283
710,1.036934766380035,-9.631159109883587,0.15587282525994517,0.0008408725753415167,0.0156667891934825,-0.008625816267716222
711,0.8117569138926033,-9.444848448431278,-0.5245618644039914,-7.429118682485945e-05,0.013846835129820503,0.011144705462102559
712,0.04263441237238752,-8.945157241254122,-0.4273822222134229,-0.00014052288220087772,0.012073921223911896,0.021331670036292147
713,-0.5232838046007043,-9.117480411329257,-0.461560774105352,-0.0021947974380204568,0.009632630914314592,0.02601237406050366
714,-1.5907170184284873,-9.431249734429423,-0.5045914744475984,-0.0028235246849142004,0.009462176243968053,0.024189144645732543
715,-2.240193393043079,-9.528231106018175,-0.36836664171552697,-0.0016875025043085318,0.010952137099900913,0.017473014389366753
716,-1.0073773648798292,-9.200062936078984,0.10866376023997429,-5.815000685544657e-05,0.011804875107682765,0.008706100908526478
717,-0.26369657460582907,-9.331569679657097,0.24111756923574912,3.0373822074174076e-05,0.01187125582216993,-0.004868573914348232
718,-0.8797433651086451,-9.319178966849742,0.38595050698307776,-0.0006278477799397969,0.012581345322049959,-0.007474199256453486
719,-1.039032190923201,-9.41570342756796,-0.1300241233794928,-0.0009960724009131464,0.01440693275416921,-0.0074849313557134485
720,-0.21671217733170844,-9.334973034397137,-0.5958628175670504,-0.0009910815265137042,0.015930359108249133,-0.008277306863428915
721,1.1724579355359737,-8.658384899189754,0.14178503937541861,-0.0010260251694835761,0.015131002277293467,-0.010518018677484628
722,-1.4705444520029052,-8.804240757605603,-0.3566447735664139,-0.001878048614651141,0.015119226549990926,-0.007982601572583892
723,-0.04895420426898034,-9.212675290704091,-0.08446420674997758,-0.002062582743922554,0.014401991085477146,-0.004063168199905273
724,0.6066282808575939,-9.670189914509692,0.09266834990173331,-0.0016071672969316688,0.015460319533869655,-0.0021940732449801915
725,0.11625614722125208,-9.810592903972633,0.05064512726115236,-0.0010394153241584723,0.016435784655277584,-0.0008752088351577655
726,0.1279701538321689,-9.289154408093006,0.017993225635147273,-0.0010648708007948893,0.014142458062884854,0.0030687395438804338
727,0.7576525071762162,-9.107070087720778,0.1992928474064754,-0.0010595812000984018,0.016732107419394515,0.002211580996724131
728,-0.7605665239279749,-8.860332945700554,0.1529388935120295,-0.0017848151465293019,0.015790137867522813,0.00960865615696843
729,-0.5388802347118133,-9.120279794642633,-0.048465104416450584,-0.0031081849570037644,0.015018684549912047,0.012744815560116165
730,0.6094069207194235,-9.661097911101788,-0.2802977708046767,-0.0037150144545241978,0.01584118928365075,0.00892810299399287
731,-0.07102310895647246,-9.866172138446686,-0.3745612463841301,-0.002097228000826131,0.018357465331207627,0.0011786338390790412
732,-0.5460981401116468,-9.274953801701734,-0.035794105921615804,-0.002119439621888728,0.019203243318062634,0.004569320518882455
733,-0.76398070052553,-9.089611828591208,0.826424359855204,-0.0027825627079957815,0.017279495071059147,0.002455502821431327
734,-1.4645132192989072,-9.452057330408266,0.24478006726655838,-0.0030984700909346278,0.016667106351368373,-0.005227087718493199
735,-1.6709989440441402,-9.873774848887269,-1.015604455774915,-0.002809686812874194,0.018087291030943503,-0.009648443852548426
736,0.10270352823690718,-9.62903130870082,-0.9999788197164018,-0.002091203369405987,0.020357498316338037,0.00021926714768435844
737,1.158045281277051,-9.155305437282532,0.1316663565266592,-0.0021242411501844138,0.01860866625057289,0.0053161296851368745
738,-0.2569788656375425,-9.035233409639337,0.10694195820326963,-0.0027769438443870937,0.020403534795929837,0.0014361367024497132
739,-1.5520664359523906,-8.879626879633147,0.12047251654743293,-0.002671827338070843,0.022021225469292163,0.0012166524005817313
740,-1.6047181169079467,-8.871195596121039,0.22225901148686927,-0.0018456709193891132,0.022876189872122105,0.002549826929509022
741,-0.10769192713099988,-9.337869194464151,-0.034378838393799904,-0.001030478009695079,0.023707287864158922,-0.0023750143724492467
742,1.402175782595949,-9.056206174164117,-0.715569518305499,-0.001013883687151624,0.023719731327124585,-0.004919668565072686
743,0.401070479253148,-8.867241287283614,-0.5538740424523287,-0.0017126391523684728,0.02720788753051541,-0.0019683507463117756
744,-0.24417029835217968,-9.140218873831081,-0.5958777578747607,-0.0016504861954510584,0.02614724275871197,0.004667070761379084
745,-0.02481236939096962,-9.409292986070824,-0.7815463369791369,-0.0010919467631751835,0.023393968893749915,0.007055660137217804
746,0.42643620174127667,-9.001271993205359,-0.6143531315230475,-0.0009746649431996807,0.02569919257497552,-0.0028515671055763256
747,-0.21841332561473148,-9.79341047388073,-0.5816984431261361,-0.0001840448641452887,0.023080638662383628,0.003954732115697316
748,0.31742500338278223,-9.510087138737035,-0.4896136808718826,-0.002020675364307757,0.02403670384653308,-0.003089482635572836
749,0.4340918282558121,-9.16410037122235,-0.23708996342431396,-0.003564373196782453,0.02626200822809007,-0.006121490365346281
750,-0.12441473613157122,-9.1462820822363,0.10552825224065193,-0.003914078860184126,0.02692404067446599,-0.00011878238816056489
751,-0.8348630067035879,-9.504360419229704,0.3752665679605386,-0.0031563170174916727,0.02391650213393443,0.011732644123983978
752,0.7498620457294886,-9.417338825155822,0.3308272075082939,-0.0022335559759967274,0.028290841753703097,-0.0018469055145907208
753,0.7969112534065058,-9.153450787383171,1.14820127981975,-0.0013953114677999934,0.027688613081383616,-0.002280950368695001
754,-0.22273968130544952,-9.232511817455332,1.5351478939591008,-0.001491688938969853,0.0269471157560668,-0.004045816586763495
755,-1.590810317698205,-9.183777169445513,1.3423235196615018,-0.0025634453535668825,0.02751013704060381,-0.008083145760876837
756,-2.278075748067482,-8.335900453114064,0.8874331605654615,-0.00401264531474673,0.028900647352214086,-0.008588303779835615
757,0.44223030056636065,-9.2454397905549,-0.31799716068727957,-0.0024536972145217154,0.0253692637379963,0.008412007708794461
758,-0.767786423330476,-9.360352965601091,-0.5677314488514992,-0.0021069247376983738,0.02405833009535451,0.0025639732459237915
759,-0.6096642233405718,-9.508449836205626,-0.47354115540046166,-0.0020850614677378355,0.02418745197527663,-0.0007906535507308576
760,0.44271743718857004,-9.530939660400477,-0.4311107906770144,-0.0020825073401715627,0.024779049945108378,-0.0011928123190137886
761,-0.17904582513711564,-9.00891877357485,-0.6594184228008477,-0.0021539351796598977,0.024807959784397548,-0.007088053024973936
762,1.3533280137695742,-9.670096812847854,-0.12603491574488224,-0.003867477552199755,0.024776111427720883,-0.00032076386210856006
763,0.41037485430091647,-9.558672420859347,-0.09290668075003865,-0.0035195276312586675,0.022646355414754217,0.0037090772471888842
764,-0.5211164364021155,-9.309053679652038,-0.6501113176134888,-0.0026477562468082724,0.02545572425332021,-0.00202429413096692
765,-0.2236250413789756,-9.291459231329686,-1.3140682341913683,-0.0022902091894316185,0.02966159185496958,-0.009929238004344247
766,1.5439192114957099,-9.641255821392313,-1.388534475803077,-0.0030834886722729965,0.02804308439008426,-0.007726705025385462
767,-0.08435030826167422,-8.950121954197611,-1.0464642611907438,-0.003066889155888391,0.02805553174771749,-0.010272155666895544
768,0.5173546965248915,-9.189824383099802,-0.9759589308868363,-0.0031631414657283374,0.026575122249653894,0.004512708742632581
769,0.9492101633918695,-9.331336482786103,-0.7208835849112873,-0.0017704795420353209,0.025806835970774464,0.008765794752123026
770,0.6770115224744089,-9.490817321880675,-0.3201845142913736,-0.0010875530459266679,0.02528369260591053,0.003872127452804502
771,0.06656578865982354,-10.070136526634682,-0.08536423640043297,-0.004194979219620833,0.023626134669134873,0.002820670538385892
772,0.5073923623682934,-8.942806128151682,-0.8998269170188737,-0.0041727676742279165,0.022781165662735088,-0.0005700189388159254
773,0.7074022407663656,-8.56392849978394,-0.4515260649746021,-0.004218807081534189,0.026112525762632448,0.00642997479748367
774,0.023597312367584666,-8.865584536189411,-0.3253545990520607,-0.0028259513480654347,0.025015289351034073,0.010965921929313354
775,-0.5473729712155675,-9.199762722807552,-0.4293332799522934,-0.0008208552380932317,0.024251335296852847,0.006174697473906147
776,0.37045101680248954,-8.828210310226794,-0.10597361385937408,-3.5244675579009e-07,0.032238724496814426,-0.00924987111331885
777,-0.1892666306142946,-9.3150512719436,-0.6667043298673749,-0.000873556703578438,0.030486419505011672,-0.0033156110848304755
778,0.16116686923040768,-9.13255607192962,0.3092827961072227,-0.0016662336998079213,0.032322117102599586,-0.009890937831521649
779,0.7547191933745977,-9.389917373341426,0.3157512076425728,-0.0030217772457741413,0.03095402679039927,-0.0028320405929753148
780,0.7621322472387824,-9.53076069534363,-0.46668668385676354,-0.0036849039637544137,0.028250353565433928,0.006134510920383245
781,-0.43836592213864306,-8.595578627309909,-0.8004356263399713,-0.002048491377157312,0.029291439501681484,-0.006488852641221051
782,-0.1384472876399837,-9.36971996714666,-0.9996395070192925,-0.0020487332173086993,0.031876941037201734,-0.006497793124168984
783,-0.3207020919741345,-8.945562177950146,-0.8152723809599192,-0.0027277261304770486,0.029524457201288504,-0.007192724418081945
784,-0.5129751976773764,-9.02863103120523,-0.7081240709500454,-0.003122444982908134,0.028504488957373033,-0.0017616877552479463
785,-0.24908605242614498,-9.47611303388502,-0.7636930143333838,-0.002909706368672695,0.028499245126238925,0.006524462614787575
786,0.7196485842977036,-9.474763580150263,-0.7830267977835941,-0.002036186955753226,0.02724194265137,0.009538317305632095
787,0.20836804098446263,-9.708917622437006,0.8239532794436837,-0.0002780773797953356,0.03247717872049432,-0.004034974473728669
788,-0.2166545243462397,-9.5750154558508,0.11606213844144181,-0.000681812729437518,0.02773957284472583,-0.0009004153566895179
789,-0.4174128762612347,-9.406228807866198,0.34722675800573166,-0.001970689384443397,0.02626833884820616,-0.0042829182277121765
790,-0.24738366998566036,-9.554853101931208,0.9576613265023016,-0.0036431168462886503,0.027196462850481946,-0.0039185987194624
791,0.23121571616455078,-10.189010559269011,0.21739205975642145,-0.0050444329845577875,0.024746756347412253,0.018282896546131217
792,-1.2595707101281326,-9.318406715637268,1.5632338640294652,-0.0008096672969356965,0.02565060261584612,0.00899725929841948
793,-0.012713886013696718,-9.479869437820248,0.8796678426869695,-0.0007087172305797644,0.026541392003406133,0.0031440114580368146
794,0.6693417060569518,-9.664074750437875,0.65562109468193,-0.0020059976403140637,0.024954784920873566,0.000949817770800575
795,0.43073621160724973,-9.47867797020594,0.5031894742622349,-0.0028856649498751968,0.023988925524252056,0.0031228574635956143
796,0.15012440776618216,-8.901350467976823,-0.7638858841796677,-0.0022069546327107776,0.0279620568230613,0.00869332679871467
797,0.6232423842102336,-9.202046332897408,0.14100921554048867,-0.0029752019900511732,0.02801251335921017,-0.00149770344272731
798,0.8515537242247089,-9.12115011554372,-0.5153140632959525,-0.0024443611401861742,0.02446733798319026,-0.0005070041804062431
799,0.25260561894572897,-9.12657798231865,-0.8165013443643808,-0.0015870798804583375,0.02411628440966505,-0.003893610112470625
800,0.05767954026235983,-9.205672382345107,-0.6370246099783075,-0.001561959639884539,0.02475610430137504,-0.0033639322636220465
801,1.657080344009894,-9.151063251837005,-0.47476984720522125,-0.0031046495245304687,0.021722431157841816,0.01412131504847698
802,-0.30193142194936456,-8.812988120343846,0.5248938890185181,-0.0013795778050195578,0.025209644141658945,0.005644883009164613
803,-0.19556739307790805,-8.918151603596916,0.06289485046586543,-0.0010414250255052699,0.02656206488033451,-0.0007473071326374668
804,0.8725744873833888,-9.367695700969719,-0.47759844690822206,-0.0014937212926786013,0.026456767882081275,-0.004748514007833516
805,1.4164524536207437,-9.462977590268878,-0.5222425678918718,-0.0023301508162458582,0.026428988197250994,-0.004565058841168314
806,0.17138473388668257,-8.588753908261067,0.005715831910817759,-0.003142330701352659,0.027936060421466354,0.0012975377666864577
807,0.43118374680485594,-9.78517422322486,-0.6888853058345202,-0.0031754491459612963,0.027049601521177934,0.0063914182782262435
808,0.5459881576196182,-9.947307610897873,-0.05357244544331699,-0.0024397712951400377,0.029061032233161917,-0.0010881223734033676
809,0.5839234857647602,-9.672536423548957,-0.13368425171997525,-0.002540283929913452,0.028698171628185387,-0.004458744351427083
810,0.29335066701748536,-9.197667915287408,-0.5356735389903593,-0.0025574732718037442,0.027791446879162567,-0.005504803814666715
811,-0.5070051378296728,-8.681532404035526,-0.04582751384310514,-0.001102929739060302,0.030080466663967288,-0.010279237860509719
812,0.019931843173543143,-8.704960696889538,0.5433987587054758,-0.0029056184639538445,0.028259109852807978,0.010068675169935431
813,0.47107596521301787,-9.32992896183674,1.273231421870221,-0.002466893907956101,0.02940913756012733,0.003166641746217105
814,-0.39469890702654375,-9.300792427070572,1.461567985303542,-0.0030218893169592425,0.028695227183742233,-0.004205575451099494
815,-0.8654642726580764,-8.855782703544598,0.8941757704049256,-0.0038637834518122946,0.026960909001816042,-0.006502593267637019
816,1.2688309914520044,-8.80028699678937,-0.2549661429110693,-0.0030947272382117396,0.02715062835812436,-0.005987592816432568
817,0.5946256434272859,-9.327965393042842,-0.04587162823522498,-0.0031392361109993986,0.029702126661278104,0.0007916033583410097
818,0.8275877168747792,-9.617759529460757,-0.7109438207320529,-0.003165154761760049,0.02871422917022548,0.004783334153688175
819,0.4801633027637098,-9.53899684610164,-0.703983013146345,-0.0026627602117108825,0.02799831524339732,0.0013553270472368558
820,-0.20017136919388762,-9.396304958357252,0.004494729373609008,-0.002058581326319017,0.027748379630240304,-0.0049142787713192
821,-0.34000686946033803,-9.524057133513095,0.6364561029938614,-0.0020466046195050185,0.02696070068487813,-0.006736664662198652
822,0.0792921024243008,-8.613519845792899,-1.3886954141481294,-0.002024473662272621,0.02697729586349984,-0.010130333367916439
823,0.11606467842031676,-9.475840959870132,-0.9231436063003845,-0.00209800387429286,0.024076069295009744,0.0011958079412985748
824,0.6413804164355958,-9.77870514278344,-1.0701782811267544,-0.0021092795838818673,0.024590207324390205,0.002915577919455254
825,0.9594790897086163,-9.51981707414801,-1.683793104414991,-0.002338926005721918,0.02610282404797623,-0.0036225758806511365
826,0.1333252791714532,-9.544969452214168,-1.520015552271463,-0.0028921012251968375,0.023997560993617655,-0.007734817161191463
827,1.1426762464972837,-9.84746118625348,-1.2646319922660725,-0.00037111975026601077,0.027455060440895112,-0.010262105728985676
828,0.5686878914860475,-9.68653136273598,-0.3692042860649797,1.636968178158977e-05,0.026592925101314162,-0.0029833450691083047
829,-0.014340480634787281,-9.703652171388338,-0.7409863586187652,0.00046230138756293756,0.026333356603071404,0.0024424765261390085
830,-0.14838712601454512,-9.88245620596238,-1.5657290828178234,0.00020530514942510242,0.026632052537673923,0.00248828605038194
831,0.15171848713533298,-9.967205029587317,-1.148088017597753,-0.0022017963180199214,0.025796597993789985,-0.0026288813504440228
832,0.43646994762184377,-9.92582189642079,-0.0689241470310647,-0.0038378023490064955,0.024961266629934174,-0.007736055204634252
833,0.45532273912045795,-9.049302220249173,-0.7667094787564721,-0.0013674418035698052,0.025520515687889517,-0.007184606968404138
834,0.34828592341736153,-9.351665552132118,-0.38651966365850776,-0.0004939119720913385,0.025344572045589965,0.0013823408627352198
835,0.4571113866916734,-9.988091008434631,0.801529503820574,-0.0011001550817435696,0.025296689759218196,0.008280385466566153
836,0.9826077611524123,-9.33802012770689,1.3654361689513919,-0.001121899558041436,0.02698613709260914,0.0016185104263783858
837,-0.057566817875564,-9.410612845427233,0.6822731493702854,-0.0019242050422159074,0.02787326762322796,-0.0034854036217689182
838,1.1789605762465405,-9.401484107828686,0.5968262063006935,-0.0034353960602982736,0.03017462132368673,-0.005792610260118174
839,1.3798015036986473,-9.317023080044287,-0.14995827934361172,-0.00416359687158745,0.02975276059755084,-0.002100287174154577
840,0.47618950497426926,-9.097975759038352,-0.9693757900317843,-0.003930083844875452,0.02826850108682305,0.004151116414467105
841,-0.29211200620316496,-8.785664343615096,-0.711728632366754,-0.0030472203038870824,0.029184109041366587,0.00681889821358996
842,0.6184076982046735,-9.586156855994833,0.17490324286234654,-0.0013385869244401595,0.03093574629750618,0.000893875272824678
843,-0.4154347122171094,-9.943998116451095,1.2561414226040943,-0.0003038706292299531,0.031272908619948823,-0.00784716830085102
844,-0.5535137974025344,-9.659246353167035,1.093582009431152,-0.0013993912131937596,0.03027804510035429,-0.008347394493145602
845,0.31897680173353354,-9.319686738128611,0.18713843691934065,-0.0031327350698004304,0.02879937575799655,-0.00018914210817081323
846,1.2230240790407132,-9.665074198453391,-0.24462839843573858,-0.0030742994671036895,0.028155725507153694,0.011193806742365604
847,0.905981215818722,-9.778238106222528,0.34389630859176107,-0.0013768147513546223,0.030760627411669503,0.006963037150387149
848,0.28005716172905526,-9.07425057429461,-0.091754019418854,-0.0017206677503308193,0.02839017678435264,-0.002906762543186967
849,0.42410802985466856,-8.804660614289013,-0.48778292044468724,-0.0015666136313108924,0.026957027128022046,-0.00605924717405874
850,0.7462816127289177,-8.943956068135547,-0.5247971820056142,-0.0007589748456268498,0.026651120184124813,-0.001823098821996177
851,0.17438051671771676,-9.083505707599821,-0.15428237696624825,-0.00010215152936963365,0.025893476993918897,0.004938948268310376
852,-0.7336928693010623,-9.868845752480574,0.7493468418441662,-0.0009147414650049154,0.026773116338301203,0.001532273412391295
853,-0.3286716314738639,-9.80593335913252,0.1332224931001867,-0.001732374540940099,0.02550166756300372,-0.0011626317306868785
854,-0.2604948219659635,-9.669560258826404,-0.28278316052071883,-0.0025281460607174304,0.02430839259435717,-0.007161604608128839
855,-0.14872652192456842,-9.394549731460017,-0.19038501491890503,-0.0027881709198780474,0.023748834936470554,-0.010595268893939552
856,0.7348626410738736,-8.812594196131116,0.18230333008385088,-0.002067615840003355,0.02357372948874957,-0.003454693842057212
857,-0.6580710496565325,-9.585307308186419,0.5308345886684135,-0.002139378900557569,0.021795858781396928,0.007580491593738785
858,0.2003203723427745,-9.888647117971802,0.48568993961968254,-0.002859100516688884,0.022202738198657822,0.011548302512398797
859,0.1813027458867643,-9.60465304104127,-0.14090547848980742,-0.0031703922091233672,0.02209120570224675,0.005704290436995183
860,-0.05598734376523473,-9.224198450402703,-1.0803403528872164,-0.003677551712974826,0.021264243203364924,-0.0013949056853473358
861,1.0380433002390774,-9.38126974522297,-1.7766715221734448,-0.00508805184866256,0.020533979700764208,0.0007893378826143797
862,0.27038858975229674,-9.738891566836067,-0.83564153793123,-0.003407789097052437,0.021402497527195977,-0.0008900292257464388
863,0.5224209833498759,-10.196391063388825,-0.5727171338443628,-0.0024678980841527694,0.02152024815555448,0.004483126514464268
864,0.8724164854383856,-10.266559407906877,-0.31167297843980524,-0.0021376669874378,0.021506100407537795,0.007323159082821799
865,0.8313968153249598,-9.516780332616584,-0.33456976759731427,-0.001553137517180774,0.021527718135510028,0.0028177983906507997
866,0.15160577438384867,-8.00653368834086,-0.9322258106397632,-7.587155614162801e-05,0.021517713863868415,-0.009899083903925512
867,-0.6282805280480234,-9.81824960384209,0.5833588044563929,-0.0017237241685688352,0.02067408748808296,-0.013309831042021734
868,-0.22126078080815323,-10.00639863979433,0.2990225284518306,-0.002013156492761369,0.02124015546879156,-0.011763490464152022
869,0.42008474538904716,-9.470202468294717,0.6037706265232428,-0.002519688624597308,0.022589997285346844,-0.008734435476587383
870,0.7993800528930809,-8.965908024170316,1.0475373982355896,-0.0028480410964283618,0.02370243948708194,-0.0011078309296781866
871,0.770091060788617,-9.112704902695961,0.43464664752381726,-0.001961749958623425,0.023779655650581998,0.012335175729102789
872,1.9516628427042155,-9.446111361739437,0.10563447648898089,0.0006479165972277591,0.025579598461847944,-0.00376082640713498
873,1.2812233614987143,-10.307073346447925,-0.1450329508626738,-0.0010423712387648079,0.023698589618057056,-0.0007986141377547748
874,0.5469520052141142,-9.919308861898408,0.008974272091159585,-0.002074170815010134,0.02313458568941837,-0.002441792755115235
875,0.5724686710768394,-9.208580458031394,0.08089916917007914,-0.0017638610149282015,0.02344391537018401,-0.007242081859737107
876,1.4378346482053344,-9.710209591359948,-0.39515252248761124,-0.0008683564023361787,0.02264651121516676,-0.005666006341309546
877,-0.3117722636493549,-9.46399314165131,0.9654427647202948,0.0007400626248889534,0.022599531499722953,0.0036868299602079227
878,-0.05164868406125908,-9.553472865388748,0.0859385828106205,-0.0003770743514201074,0.02188024351251666,0.003806110704188667
879,0.056525282454381896,-9.739359461013589,-0.1763199530658549,-0.0015477980243803627,0.02153124604481694,0.002096253943913967
880,0.008944642042080342,-9.524861716872564,0.3202266165205002,-0.0018127597580355013,0.021251330496633032,0.0003969699407772255
881,0.33562001194325797,-8.703502006131396,0.764369618807097,-0.0011039372158806327,0.020254175746351428,-0.0019365977675947915
882,-0.35081692802698144,-10.366731408555884,0.5543555690921725,-0.0018782578736632602,0.017714983556037768,-0.011270478874207207
883,-0.6703098696113529,-10.138407226436234,-0.47568787511228516,5.807523463006569e-05,0.019433366843931668,-0.0085400677514595
884,-0.014924715036865654,-9.553772044672339,-0.6687106395859768,-0.0014123859975406655,0.019448156281970205,0.0015001143378395067
885,1.020251314106888,-9.60464438136753,-0.23243142677495632,-0.0036618649531735643,0.017698870689617938,0.007082499248251319
886,1.4610582522356454,-10.668983153841408,0.02430108808838618,-0.0019359460763498303,0.016238429720409946,-0.0015456266214886293
887,1.0412700166730848,-9.378230555717654,0.017059108100156612,-0.00031576105584352844,0.01706130920191771,0.006107803735421733
888,0.8186266870747314,-9.287388577166485,-0.2904824634162445,-4.069719109348092e-05,0.016482966815651146,0.005946763613376319
889,0.11240786678547432,-9.89519940591528,-0.33056649918692127,-0.0005123122652949264,0.015634958224581004,0.0032522191166747304
890,-0.24280549718020836,-10.23220486059246,-0.4281225196763331,-0.0010476275197747692,0.0139179352363587,0.00042879758669097344
891,0.6967019763281227,-9.497934213890675,-1.0337375518131422,-0.0010362975906744458,0.011076047576793379,-0.0012578517618096602
892,0.3160548349906093,-9.904590905748456,-1.007535303735338,-0.001025551943449533,0.014531412833979067,-0.0029670040505765842
893,0.12332461125100974,-10.008439915344294,-1.3211957100909841,-0.002430330006291479,0.012926092674646675,-0.0018350712597560107
894,0.48906793208398114,-9.90532190700906,-0.8270382164704336,-0.002154218004688631,0.013870605103239071,0.00036023145532702535
895,0.8910579678585019,-9.837966007585255,-0.14472075687116476,-0.0013494363874291741,0.015558218410814229,0.0034817026669774287
896,0.6479840620266898,-9.965039276855718,-0.33847745247775984,-0.002134523585944619,0.013742565821812725,0.006979368291319957
897,0.4620638644581897,-9.25181747768665,-0.9173312177719865,-0.002106619423382721,0.011178616266358176,0.0027464192069435295
898,0.40522933467272937,-9.586008221587157,-0.8057675725092331,-0.00140235566170603,0.01076160812630629,0.0020672927590210054
899,0.4605631877090274,-9.541075572857247,-0.31612510341512273,-8.001457095309822e-05,0.01025122207990515,0.0025835278353060786
900,0.252242292386892,-9.347253388905523,0.2670807936523736,0.00018240385729147233,0.009974426402547604,0.002002162571047156
901,-0.4851075796486642,-9.682672404282043,0.6562650040487988,-0.0019301937598528085,0.010932473217795677,-0.0017196496494668177
902,-0.11473497554519671,-10.235580872140432,0.6128619377342406,-0.00021602886388896855,0.012687449314467844,-0.008492887857040818
903,0.5243097809799361,-10.224201439533255,-0.4918119039862794,-0.0013482571092384142,0.011520639946493515,-0.008177182289174125
904,0.6973831748501982,-9.804165048033,-0.6237043860343078,-0.0015743331895070566,0.012310195300462236,-0.0034895259231028527
905,0.45548739070479827,-9.448478419117427,-0.043639379934869646,-0.0004820718553698903,0.013707349562600234,0.0004322518321839873
906,0.1817205358485087,-9.627587611201713,0.22522862279624467,0.0009008294134273407,0.012699223421107563,-0.0011687954299722488
907,0.6416283929917911,-9.807359280660128,-0.47293791826151993,-0.0007626725698078438,0.010119215601809504,-0.0020289177086910666
908,0.5201589154604332,-10.016192148405887,-0.348665707026487,-0.00035315252856982037,0.011132992067402326,0.0013965096668441894
909,0.15866130211618623,-10.027828999022915,-0.30362378237780996,-0.00102882976408493,0.010291940624219918,0.006634143290313362
910,-0.12829276205306317,-9.709515997209209,-0.1872668048649078,-0.0021478089885764357,0.008573156925124996,0.009108455295027391
911,-0.09314639704338985,-9.10875351489114,0.30392400144565457,-0.001822290925968708,0.008746935036648565,0.00517356830693548
912,-0.029052855250055305,-9.364845717367313,-0.06471947870434366,0.0015232075785287405,0.010472334946907046,0.004359504310086886
913,0.31943049774303706,-9.719120724478483,-0.5057118476120586,-0.0007283103953682337,0.009316582150681773,0.0013499553503282095
914,0.6117921206400683,-9.69670797198339,-0.581225791825148,-0.0010796176250332042,0.009142784641659248,-0.003549884993873678
915,0.7184792981499595,-9.70528579804821,-0.20623831968707257,-0.00024223912921691177,0.009725360160239319,-0.006593244251426475
916,0.6197591555323608,-10.208476833453943,0.4053201087706467,-0.0010118492924338228,0.009483933357317596,-0.004978206688974275
917,0.5811073249852253,-9.73214922420852,-0.24917304228000992,-0.0009618141726394414,0.006936578980484836,-0.012604824479069382
918,0.3631031200879757,-10.111007034765105,-0.35355904522154596,-0.0009726574580345287,0.008690147515796096,-0.010973420753987977
919,0.5101461024271015,-10.078814040390421,-0.3408144468960798,-0.001488455354962595,0.008203687519100413,-0.007584055440691073
920,0.7111857639994191,-9.838266302348917,-0.3310284629885539,-0.0017664231207391756,0.00707939141138318,-0.005637195429888338
921,0.49141441501401995,-9.962982571859435,-0.36443650278632284,-0.001007495559972266,0.008565728045507351,-0.005629426952929939
922,0.3534420578711166,-10.105092712043485,-0.5984635883443438,-0.0010627449618132011,0.007662673966597749,0.0028581222643246293
923,0.475695307796708,-10.00386586186675,-0.4464861639009866,-0.000369022590377126,0.006793971822699184,0.004213752336385979
924,0.5841093378251807,-9.866158166423624,-0.2259456468481659,-2.5038135625253954e-05,0.006954282437259715,0.003715348428152666
925,0.5128213933760094,-9.763507060080126,-0.006219346779649977,-0.00031435759483522093,0.006634341607517599,0.004315392185699101
926,0.1959638736777918,-9.71519969982713,0.1588753313231285,-0.0010155243343330858,0.004272241053069367,0.007474390866825593
927,0.04478139723393246,-9.659699345653879,-0.2523699751450078,-0.0001864155461433744,0.004267422231797391,0.00833263305531963
928,0.05309713940481417,-10.0977439523081,-0.3613975253940134,-0.0007590674091271331,0.007170925957539181,0.008449434641725005
929,0.11735267373743948,-9.90398083168776,-0.26250999425530264,-0.0015776727424012685,0.00603517983064699,0.0059297719354358
930,0.27954359912593224,-9.407734584030987,-0.17707085460720579,-0.0012459980312608907,0.003514952726994882,0.002572597151727549
931,0.5345776271395615,-9.365021408324628,-0.3201711539078616,0.0011139911010332004,0.00438254160694493,0.0009795336483346907
932,0.1989427441605277,-10.091190038048138,-0.4945223881860676,0.001954865882503853,0.005247581982624657,0.00013836989221886645
933,0.18920720999784485,-9.983729989962658,-0.4076455779896524,1.2519830093743749e-05,0.0017800388942586824,-0.005729210916026147
