,acc_x,acc_y,acc_z,gyr_x,gyr_y,gyr_z
0,0.26489673868407143,-9.358988206363199,-0.23349499405547552,-0.0008592130790257798,-0.00096099434351671,-0.001172677448827892
1,0.2208729027521905,-9.396422461979888,-0.23154151766714512,-0.0017961941654451275,-0.0010461399306113091,-0.0003251489567918293
2,0.18461109563594366,-9.379973738855224,-0.239829452381164,-0.0015540980659182867,3.612441841192686e-05,-0.0005529929457783699
3,0.18843596549754588,-9.355267187872993,-0.24631751199742524,-0.0007062131945903933,0.0010703920245573417,-0.0007354854649431211
4,0.22742581065405182,-9.376031601262405,-0.23655139888997767,9.312876170217108e-06,0.000947357256044075,4.641150912413495e-06
5,0.1908722062855906,-9.396014238273906,-0.21596885063576,9.469764706188982e-07,9.633168253786708e-05,4.719337646411065e-07
6,0.1423758923836958,-9.362487353805134,-0.18271307999089334,-0.0007487141768130826,-0.0007471517161279616,-8.052934066039093e-06
7,0.1367523758619521,-9.369190630737368,-0.22279841374075965,-0.0010590032712695166,-0.001052655324270065,0.0005319110422655127
8,0.1897392163492296,-9.382985113809669,-0.25978367904285343,-0.001054899677099437,-0.0007239783481125716,0.00039764517715378705
9,0.27786399135471096,-9.369241116684828,-0.23239020864358234,-0.0010370839380597486,0.0001252480190087463,-0.0010724607681309737
10,0.2538155674280918,-9.379966926671718,-0.25883632036165405,-0.0010287180383601047,0.0009762735925149699,-0.0010682915509831559
11,0.2907055848692109,-9.369084959409891,-0.2158480785841786,-0.00029939248157178624,0.00031265192973868974,-0.0003110597811826671
12,0.3027144939198626,-9.364422189888694,-0.24906187454015127,-0.0005280074620434157,4.745330087994371e-06,-0.0005457082833497404
13,0.28856223480299975,-9.35684975893573,-0.26957279519575605,-0.0013629754240564184,1.3015033479986554e-05,-0.0007458523199794622
14,0.2585518898372287,-9.341638259480927,-0.2022148030019867,-0.0020922381569587613,-9.396507381061695e-05,-1.285133965210239e-05
15,0.2027595463274628,-9.35968895639216,-0.19912686960545065,-0.0021006040566583267,-0.0009449906473169927,-1.7020556799875476e-05
16,0.1806022864869602,-9.359188079079795,-0.20231454158950762,-0.0006135317854448971,-0.00030439924106400785,-5.108702206155631e-06
17,0.16586068112805402,-9.362769513234696,-0.1710582443252362,-0.0005377710560597794,6.72404805353883e-06,0.001081203760812853
18,0.1539850429071779,-9.374761288147127,-0.18300320236315396,-0.001056638633566177,1.2836931380675196e-05,0.0017999356025528385
19,0.1541147938189338,-9.390363373147274,-0.27300647753598273,-0.0010507743640112057,0.00012649886573934171,0.0010613089034171986
20,0.22000747537787044,-9.381065377688119,-0.21258101381511735,-0.0010424084643115617,0.0009775244392455742,0.0010654781205649366
21,0.15658519662416495,-9.384780355129209,-0.27186637402996205,-0.00030470127611379995,0.0003147788998483041,0.0003118748016668471
22,0.19888971792171006,-9.36849435244486,-0.23754644642694725,-0.0005179087028030548,0.0005438108494779427,-0.0010834359803365905
23,0.27257563043515504,-9.362150761003491,-0.1982892131070601,-0.001347546933419337,0.0007488351044306988,-0.0018111723862951883
24,0.28051797177284293,-9.383626432607368,-0.2344113547802002,-0.001973028207166848,1.897369053747362e-05,-0.0009643151938888849
25,0.2713795706807276,-9.351998376408545,-0.15553449081055432,-0.0011417965997241,1.1502280369610076e-05,-0.00010602413603582097
26,0.25884120346804457,-9.360798101141093,-0.23685937110423266,-0.0010498954203107627,1.1553054278957723e-05,0.0007479228159185898
27,0.24402710626581875,-9.392187589340914,-0.2540429818953894,-0.0005224090200986286,6.5476096346925585e-06,0.0010638587977531563
28,0.21617432509713397,-9.394223496120858,-0.24827556021022212,-6.838561669552495e-06,1.3020310056444732e-06,0.001066888150509
29,0.178892736261472,-9.343741104983172,-0.2700992997030156,-0.0002297300346829048,-0.0001097834879769865,0.000951502795996217
30,0.2058269710592855,-9.363674784937384,-0.19505646126520193,-0.001905244230523177,-0.0009448327677515088,8.413090031742235e-05
31,0.22511816517516128,-9.387051702139402,-0.19546475984171463,-0.002081963940644022,0.0004590267290358359,-0.000763522543216409
32,0.2370051786438188,-9.390261388694508,-0.19773414139655732,-0.0015516055211188752,1.1090617383854601e-06,-0.0016165060008549851
33,0.2540106636601417,-9.393958329045791,-0.22562650139623341,-0.0007210503381869895,-0.0007333177276658222,-0.0018159934875861474
34,0.27236277072788745,-9.41142080440833,-0.2870895273560122,-0.00010259149882374523,0.00011235681768793161,-0.0010669863212367588
35,0.20598912069041841,-9.38713729213412,-0.24715323740521458,-0.0009301422878220664,0.0009718872747580024,-0.0010677287247668956
36,0.1833112613217021,-9.372264266784729,-0.25879206191191784,-0.0010447928515661396,0.00032448484426571007,0.0004339190369167157
37,0.1585761398320364,-9.358348400865975,-0.26879809725740167,-0.0015805588590958597,1.7313564299137523e-05,0.0010576413951101924
38,0.15291572745304643,-9.352596968649756,-0.2472963460642363,-0.001459610234209336,1.60829943323271e-05,0.0010583520565612548
39,0.16488613802361896,-9.363829239887394,-0.20826919594980825,-0.00011671028028076164,2.4199009876442797e-06,0.001066242573967283
40,0.03983433360517806,-9.397994242968007,-0.3375666642869453,-0.0009526269689788629,1.0924784551493002e-05,0.0010613309532893271
41,0.10848133185285588,-9.414425224146097,-0.29961180259460596,-0.0010592729354591962,-0.0007380228115737618,0.001057073568177089
42,0.1252298297112401,-9.393207190588175,-0.24583079079008616,-0.0005208516090839121,1.6023757121504047e-05,0.0005253820606327144
43,0.11432268943686322,-9.376938727138562,-0.22616407190965565,-0.0003037250514649588,0.0010663965024271332,-0.000646965851152678
44,0.1459834380462386,-9.39751722227369,-0.24501994824867301,-0.0010234422846521062,0.0009610698751072078,-0.0019131703912977048
45,0.26670652615786705,-9.386716864040462,-0.19362256510092002,-0.0010427532795917376,0.00011212819790126739,-0.00020978866688025732
46,0.2667417502157585,-9.378152106736426,-0.24779511836700446,-0.0017743658475178044,0.0007674089362109533,-6.798207890808864e-06
47,0.24796379417312892,-9.39105763620508,-0.28755703834759255,-0.0010230378089943605,0.00107384494579347,-0.000538716545561396
48,0.22410730300536572,-9.400476980363266,-0.3051889554407422,0.00032764830930164305,0.0007367784982385028,-0.00041274811997398344
49,0.19591103625607711,-9.38230802257638,-0.3019701812115582,0.0008200520925898697,-0.00011762646514271836,0.0010712117528573048
50,0.17859617102891126,-9.353119740918347,-0.21658238036718383,-0.00086014718450562,-0.0009516422715212069,0.001057219294353577
51,0.17524307106347653,-9.388566836427293,-0.18989810454473557,-0.0010501888812727523,-0.00030432798999002574,0.0003085318081165948
52,0.1819743097261557,-9.413550743504285,-0.2292147615604373,-0.00051707059529954,0.0005416138120836169,0.0005367330558949117
53,0.19041661109743066,-9.406683311773207,-0.26272481964615046,-0.0003165755638287911,0.0007457253140755357,0.0010686565727908105
54,0.19651449867410836,-9.3716218261286,-0.2300831949750843,-0.0009433167190064538,1.070283744242384e-05,0.0009512505446127437
55,0.22104389107925998,-9.372576298688006,-0.19209854346628147,-0.00010193005075398898,1.1564946764295522e-06,0.00010278733996600908
56,0.2400781652589628,-9.362841678436682,-0.22180713417579273,4.807317172686893e-06,-9.152913017767753e-07,-0.0007499924655375228
57,0.24051551009535044,-9.362968012635044,-0.23691490208053545,-0.0010464801364357716,-0.000526261323326386,-0.0016126703683577183
58,0.23296353556688848,-9.381207503627401,-0.22271193210961734,-0.0017690350628823807,-0.00040356047263667434,-0.0015010259857396605
59,0.22194741350615482,-9.409028615019645,-0.18695106746790868,-0.0010353045430804351,0.00107471748959029,0.00010852433800991798
60,0.15894054281840192,-9.374521934783884,-0.17404678203873786,-0.0010407745226348976,0.0010757589487924817,0.0009618991633347267
61,0.20658125225435542,-9.374544978781099,-0.12727226975745015,-0.001048787292783451,0.00032863473778065776,0.0010622991772351938
62,0.21281564042030376,-9.402019738198849,-0.18114813023592732,-0.0010466479502639053,0.000546260487549113,0.0010633653367443444
63,0.21319190364670437,-9.412022353267222,-0.21961809394424842,-0.0007289069542924263,0.000751273856056081,0.001066240376220258
64,0.25317298635027474,-9.37675447856513,-0.14793816383052344,0.0001007765259193877,0.0001086925411140312,0.0010680456245247176
65,0.2507681439576129,-9.38016319025044,-0.2004144668597186,0.0009450591143169165,0.0009512132310563759,0.0010771264623504106
66,0.20912319643937471,-9.395557021854605,-0.22520275510495052,0.0010582797242080077,0.0010527930843362097,-0.00041903002670483765
67,0.17133785132407858,-9.401938826556066,-0.2518015419009971,1.2197319623121297e-05,0.0005283798058744519,-0.0015999341425217053
68,0.17862790007975687,-9.390010976633533,-0.2754352534368536,-0.0010313784651802,8.027510330511226e-06,-0.0021409185760224
69,0.24826889079985762,-9.363254066759005,-0.2818459422669035,-0.0009261878421249281,7.08225491609376e-06,-0.0020320993920576744
70,0.2973276756101608,-9.370516644701329,-0.2418505211421064,-9.57462691124889e-05,-3.80191549642085e-07,-0.0011730116551392133
71,0.22455729072448688,-9.374034016810631,-0.2504477859584886,0.0007273673493136778,-0.0007537414867545686,-0.00031828041712923344
72,0.23190911548350168,-9.368109248292573,-0.2590812046671948,-1.0603784275554527e-05,-0.0005303065118201665,0.0005318309159621649
73,0.24649389020116222,-9.373559949734757,-0.25341578114764035,-0.0007364485560718321,0.00032917530971281146,0.0013853944294023807
74,0.18032538371462678,-9.397026803309611,-0.24181976577652023,0.00010163117187551063,0.000958233295293376,0.002032565947953515
75,0.1389620945608417,-9.353256249200088,-0.30694199278753603,0.0009346570765594182,9.766040112522022e-05,0.0011791322352432247
76,0.16709215678766504,-9.372081364651411,-0.23004469966591148,0.0010404774861917322,-0.000756376106412221,-0.00042517935226833676
77,0.23096039991868286,-9.393076531401142,-0.2111878028285749,4.40755704020422e-06,-0.0005336029286406275,-0.0016037628801538984
78,0.2803577980772891,-9.38779003529421,-0.211833235271499,-0.0007208177176091014,-0.0003145344699811564,-0.002140639969079589
79,0.28186206578335665,-9.355186474110555,-0.18040088308591717,2.9019059332790833e-06,-0.0009598510052245185,-0.0019258915451687906
80,0.29725305709639555,-9.390703259925381,-0.24277021644327007,3.2271039283240347e-07,-0.0001067415354179201,-0.00021417138645556962
81,0.2427930025817463,-9.393061628174456,-0.168333901773979,-0.0007240071700604093,0.0007519855241238132,-6.495135840406073e-07
82,0.20478297734327144,-9.382448705887185,-0.18085968854962517,-0.001039828988137728,0.0005429646826233586,-3.5325813635011688e-06
83,0.21579940268762215,-9.367777296572644,-0.19787018227083752,-0.0010450620097038998,1.0632794906124718e-05,-6.140502093113178e-06
84,0.25939829065147096,-9.358292700178897,-0.14109909432139314,-0.0009411716490250175,9.575781171470962e-06,-5.530070395013551e-06
85,0.1425229503681016,-9.374930418034293,-0.2649629968082842,-0.00010525496032709449,1.0708976076236688e-06,-6.184497170480738e-07
86,0.16017786251503577,-9.368066761868333,-0.3002683581879743,-0.0014667907478308506,1.578527541167095e-05,0.000737331239994783
87,0.20321382177699998,-9.376942407460108,-0.2500839449141339,-0.0015620814942347901,0.001079000580937109,0.0005304649311963192
88,0.2291986298896193,-9.385905633198448,-0.20241090449138754,-0.0010272632763608808,0.0018212183618933162,2.7296477923849297e-06
89,0.22665876738533164,-9.378391560726605,-0.22854103308750834,-0.0007241532731990991,0.0010713035639385476,-0.000104489639829863
90,0.26754108806058435,-9.3900406887819,-0.2270187182314325,0.0017898516707485778,0.0010447394682386961,-0.0009431249912702015
91,0.3113635812507845,-9.365985484166826,-0.1784752300297338,0.0013704144700244932,0.00030561615111886117,-0.0010573232568224238
92,0.27619564564823645,-9.366529898572486,-0.21797083792323788,4.984234022966673e-06,-0.0005316022160892054,-0.0010694662174611693
93,0.21881438492935512,-9.389787103024696,-0.24083959343315217,-0.0010476026205671052,-0.0007368915327722566,-0.0007584698484899945
94,0.20769885060571167,-9.412046703711868,-0.1687172262145929,-0.0009425008396767068,9.589304781992939e-06,-5.537880360262558e-06
95,0.216837251697827,-9.370670675953814,-0.3073388267798838,-0.0001065841509787837,1.0844212181456452e-06,-6.2625968229708e-07
96,0.192823914949859,-9.372633251874484,-0.26042560043770374,-0.0007414042633640606,-0.0007341858238883322,0.000736641683087773
97,0.1373277027969766,-9.375498228778518,-0.24955579603412115,-0.001064166615299828,-0.0015827510634891075,0.000521887039922914
98,0.09662465848166249,-9.380475838713808,-0.25990145977273027,-0.0016801016217708878,-0.0014786986679036663,-0.00033466085971497843
99,0.11092346951847781,-9.391909219837048,-0.24265107938656866,-0.00282252355822228,0.00013123349672842943,-0.0010830104908491997
100,0.14507223149427717,-9.384095784585682,-0.23469551377162115,-0.00030562269412950493,0.0009567364337368876,-0.001064101799817087
101,0.2316284756311037,-9.397454471455308,-0.19182809727818062,-0.0007138902375014731,0.0003273157509005056,-0.0018141762313319053
102,0.2846470422149542,-9.391577623837435,-0.27219615828831434,-0.0005100592201468893,0.0005323023968009443,-0.001604403966646615
103,0.2909344990172359,-9.397223748249,-0.31909345759826646,1.2160313420531895e-05,0.0007470485281479842,-0.0007463643014116833
104,0.26441952056467444,-9.436055419273176,-0.19767812599401324,-0.00020322144292910375,2.187023916626863e-06,0.00010215602922914313
105,0.26538145752173936,-9.406853043916824,-0.22677540250096856,-0.0018813096981790587,2.0246236052634706e-05,0.0009457030013476342
106,0.2696944141862919,-9.347977621940593,-0.18370813903953348,-0.001369256941674272,1.5163711055643284e-05,0.0010588829481033763
107,0.21569176913967436,-9.338823802507903,-0.19116441911502446,-0.0005278497859579085,0.0005348919913925464,0.0010663841737454326
108,0.17796385763650427,-9.3697335061292,-0.19472651955470496,-0.0006191953659840161,0.0007562476931071687,0.0010669144927622286
109,0.22038259860710796,-9.40573769644295,-0.14322797254972774,-0.0018953984988503293,2.0279642944866913e-05,0.000850448277283543
110,0.20018192250874772,-9.392125844683168,-0.20225483703991703,-0.00021184026404615162,1.1789716067151048e-06,-0.0008464735201594964
111,0.24652196247420688,-9.394978277114898,-0.1673009022148078,-0.0007252596692822837,7.0043290957821945e-06,-0.00032863256055563395
112,0.2169259572340665,-9.36716700666658,-0.18130352147898549,-0.0010432667987511617,0.0005388379915074334,0.0005254599497031023
113,0.16722134031566238,-9.348352270585455,-0.20371135811303354,-0.0010404898742587627,0.0007604818256289328,0.00043341341926023596
114,0.18362711638769055,-9.375939892105816,-0.1760614230579038,-0.0010388771808993401,9.455231661494538e-06,-0.0009710393921537279
115,0.2783779066585702,-9.377326909085813,-0.15910252755169263,-0.0010443471604538019,1.0496690863641529e-05,-0.000117664566829049
116,0.2397507533710802,-9.37500896839369,-0.19554877292922246,-0.0017603907644740246,0.0007569363199245129,-0.0007486406536784023
117,0.19357914721080965,-9.36911121261803,-0.26665634890161016,-0.002082373704100652,0.000557686467207652,-0.0005482063611463101
118,0.1716033322053751,-9.37947554984867,-0.3087247623608076,-0.0014791529925611822,-0.0002985757780727982,0.0003046249048883329
119,0.18584985542833668,-9.413900037298383,-0.273532690225963,-1.695441159133809e-05,-0.0009614934449247487,0.0011635766732272879
120,0.25943803264379145,-9.396809005361732,-0.241632323283745,-1.406362757728066e-05,-0.00010942543432047404,0.0020219220066156124
121,0.18682061120145285,-9.38574855699882,-0.26912661136889227,-0.0007301870819889425,8.18203427810507e-06,0.0006474717310757582
122,0.13400217242401538,-9.3894116192306,-0.2505632586380229,-0.001565793767607119,1.654043001346459e-05,0.0005184786516310313
123,0.15469569111603484,-9.391529909606248,-0.19991596154072264,-0.001480203466682488,1.592962010528557e-05,0.0007440735900111057
124,0.24823738801165432,-9.375911128310856,-0.16537349093451112,6.450350535638195e-07,-1.2281173732876427e-07,-0.00010063230962355432
125,0.2751716228094724,-9.356909296821392,-0.22693997074582878,6.115014608068418e-06,-1.1642709394759298e-06,-0.0009540071349483868
126,0.2465985884996626,-9.353575959172291,-0.1947311964030683,0.0007321835274339371,-8.681922519783041e-06,-0.0010626262194090863
127,0.2576796631815033,-9.354397301039997,-0.20658701682180475,0.0005341113799883996,0.0005201331712372028,-7.245132166504862e-06
128,0.2623441312305996,-9.368318441448412,-0.22129411303483568,5.474594036958584e-07,0.0007526489327730343,0.0010705690368234297
129,0.21369780593865437,-9.396754643703328,-0.18886890208799778,9.269100585123906e-05,9.986256153178197e-05,0.0009679979339855062
130,0.23341751355848214,-9.378731763301927,-0.23343214067092719,0.0009424435738033096,0.0009413417922720151,0.00012370394648655443
131,0.21602729219673125,-9.364112931466712,-0.2580314148256773,0.0003260985931291244,0.001061594324719765,0.0007469101604458947
132,0.2053991718224895,-9.368016532897212,-0.19164230016014164,-6.698529864629699e-06,1.5546840455044715e-05,0.0010669579365479038
133,0.1877049960807405,-9.37847958434294,-0.16315249556722627,-1.3287760406130916e-05,-0.001063412542821485,0.0004360984324241515
134,0.15599996736935656,-9.38088088395454,-0.27866884721926055,-9.955476580404996e-05,-0.0008661384702057954,-0.0009724264915035731
135,0.21227327935764548,-9.382784265771393,-0.27318853166616835,-0.0009242096346573147,0.000845459019572559,-0.00011562485256133842
136,0.16856664726845316,-9.401626427653586,-0.3100357162680801,0.00041342857797249384,0.001059851177891801,7.580090294677704e-06
137,0.17547024464552582,-9.387962327070895,-0.3033895203126529,3.252160759803144e-05,0.0010625116920713945,-0.0010464382379618878
138,0.2121330943302761,-9.377503634797623,-0.27514051247666593,-0.001025981590415998,0.000761108884536035,-0.0018248277904386622
139,0.2276888823201179,-9.404738753610099,-0.26395832896967375,-0.0010394874247073851,9.57141930408155e-06,-0.000875834885829162
140,0.23346050406250654,-9.387213322818878,-0.25602418293082546,-0.0010504273838163884,1.1654337708375533e-05,0.0008309147648202169
141,0.2363187208596011,-9.356634329595728,-0.22131456898577334,-0.00033578872954865717,-0.0007318502648642991,0.0010613900790273033
142,0.22452213981028463,-9.351278963148525,-0.21154924294024952,-1.7297599120595407e-05,-0.0010626490877872,0.0010616758003905
143,0.1801445837458103,-9.36796704911932,-0.20336743083302986,-1.2248315115486119e-05,-0.0007524547651763062,0.000751765586831404
144,0.11031583449116003,-9.392882222242044,-0.1716477415239938,9.654285619983343e-05,-1.0953717614826335e-06,-9.735483606745345e-05
145,0.16226043017265745,-9.414256697761909,-0.18159385804340605,0.0009379295244522982,-1.064171452747692e-05,-0.0009458180407141881
146,0.21669993572987473,-9.408279317421702,-0.26510864745073714,-0.0003862399108927874,0.0007385197397117678,-0.0010656357999490045
147,0.2762580317949241,-9.368113021485911,-0.24140573710530794,-0.0005278626996924229,2.3050101526403866e-05,-0.0005456549654691236
148,0.2958739292797196,-9.343235664951887,-0.22020536759388665,-8.467164810882624e-06,-0.0010643303622744997,-0.0003159656078643909
149,0.24987943116459752,-9.375940841992485,-0.3137808150156768,9.163014566167822e-05,-0.0010662222600647704,-0.0010715408337034185
150,0.2763326974838795,-9.393928117261309,-0.2537415703707782,0.0009275468343596216,-0.0010747271436286783,-0.0010666292130254633
151,0.23631621680056303,-9.393049493284982,-0.2243957130043715,-0.00040010109696262856,-0.000325221951255477,-0.00033374222213511243
152,0.18847041036069329,-9.373067841689867,-0.1858406800385192,-0.0015669092556172591,-0.0005056518710939014,0.000511873227952086
153,0.1386274662875325,-9.35442590868844,-0.17871730775026026,-0.0014976152495644404,-0.0007383357565655765,0.00105447488303853
154,0.0899733413261279,-9.36060451055879,-0.23124387446729328,0.00018398786745007167,9.55542203406268e-05,0.0009719104962434438
155,0.10103561633237275,-9.403425042750477,-0.19810490651238233,0.0018704420223993512,0.0009285205817108552,0.0001325327412728595
156,0.20257955976987613,-9.38653661273241,-0.2549455977000887,0.0021015643357413,0.0010426755451357,1.7499120034334102e-05
157,0.19618590326676738,-9.39067892926085,-0.26955174254770065,0.00055754643138772,1.4736274297941026e-05,-0.0005195516141025083
158,0.1845155386442126,-9.387581154475898,-0.23986206308977237,-0.0004425489818904601,-0.001060787350888453,-0.0010746795259727448
159,0.2850382260564144,-9.344258850443943,-0.1999552434061036,0.0008557684056385094,-0.0009785898866795097,-0.0012584512644703396
160,0.27157110865750755,-9.351569643669963,-0.19842378585341727,-0.0007967539768177054,-0.00011263844234584119,-0.0029716562302437074
161,0.3024738022822165,-9.361783473654047,-0.23526033192372656,-0.00031799950364646786,2.0874727082507256e-06,-0.0009956478447891242
162,0.2798376290153383,-9.373699543167014,-0.19835495279843135,0.0010184556862391952,-0.0005312076908924293,3.462858249940301e-06
163,0.2191026236314647,-9.373899666831395,-0.17251247714173293,0.001777960158680733,-0.0010821470673031723,5.295918018030679e-06
164,0.1701424229837857,-9.3550768122574,-0.2456686297290943,0.0009416692124623051,-0.000978576482949936,9.604983401193458e-05
165,0.21006280670197347,-9.360399661476697,-0.24016894445802867,0.00010864844390944223,-0.00011800456667775385,0.000948682255806431
166,0.22346871123874684,-9.374127364689262,-0.23721135938672366,-0.0007221551235797918,7.730753036460034e-06,0.00032759145280512853
167,0.2223188266618883,-9.375830503478445,-0.19132143959800216,-0.0010468318942512653,-0.0005101206095205689,-0.000530241262269103
168,0.22260954285216927,-9.377976243848071,-0.15915114975455763,-0.0010426428736286712,-0.000440237643087856,-0.0010752311108710687
169,0.23890324261038304,-9.393491503915593,-0.18885498738669892,-0.0009370255067973319,0.000883808198417023,-0.001068195881398204
170,0.27016619371499323,-9.389087151236332,-0.1283967627170531,-0.00011784061749847164,-0.0008267478321595067,-0.001071622695015806
171,0.3101211780301058,-9.383838429003347,-0.23443171521667175,0.0007229425621755047,-0.00034020634623008384,-0.0010642858172399895
172,0.2786794481190791,-9.401679974813414,-0.26480655435650613,-0.0004843396596815597,-0.0005157968733920028,-0.0010722889420339424
173,0.22778657611459957,-9.408559634185936,-0.2583943907432279,-0.0011882110243692614,-0.0007466553418821048,-0.0010775769080206248
174,0.22532391075595745,-9.37267682283699,-0.28140531538880736,0.0010522190422475816,8.176890868243817e-05,-0.0009664415946970182
175,0.22628584771302224,-9.361482121523343,-0.12947589239785362,0.0010551149623926836,0.0009338359413908126,-0.00010889755222454574
176,0.19871463215422114,-9.389643394695696,-0.2503180550084658,0.0010436253248999896,0.0003225245117095148,0.0007414773254554347
177,0.11606171229018004,-9.383024391210956,-0.3072883864057422,-0.0004875817193152605,5.592343188876154e-06,0.000543848111303226
178,0.0992882014827331,-9.365333876850695,-0.2605321518938572,-0.002093071077496302,2.1649849067787926e-05,0.0002943956353557529
179,0.24009324690788236,-9.376500116946422,-0.1730445407270223,-0.0019156482364526604,-7.230664501647989e-05,0.0009620500945869582
180,0.23865034147228525,-9.40034923036606,-0.2524439139133948,-0.0002459258809025848,-0.0009413914306586925,0.00011433390532083593
181,0.18515160002439746,-9.3987368519783,-0.27351076162884275,-0.0007166087325881421,-0.00032652757458793855,-0.0007388806389758751
182,0.20743417151012955,-9.383990662007188,-0.2452033085459072,-0.0010399832986080625,-0.0005093909288927817,-0.0015955718519654457
183,0.25407152093005203,-9.368574610447212,-0.21548871544389647,-0.0010408009226402994,-0.0007503882774276904,-0.0018383446669279096
184,0.24593049539375228,-9.364733067490256,-0.2293209201457792,-0.0010397230104780596,-8.279234819877231e-05,-0.000980989916676492
185,0.22621078777392453,-9.38129586621252,-0.2457504689456789,-0.0010535588897321651,-0.0009327764625028528,-0.00013178430849958533
186,0.25973701202641974,-9.370668885532533,-0.22154410105738237,-0.001053035816573191,-0.00032208854497879283,0.000724577205530322
187,0.21901454812510293,-9.370407897343576,-0.25283882026075233,-0.000540350407015273,6.130796212668906e-06,0.0005448950586780383
188,0.15898938772887605,-9.37378087347796,-0.2747422201513875,0.0002971220984479212,-2.6703077795840174e-06,0.0003070827629249592
189,0.16571038593074605,-9.367941418025234,-0.21374921579165404,0.000947389526245628,-9.997512813034591e-05,0.0010720516715246999
190,0.21621207617665483,-9.374229495521073,-0.2022521009143796,0.0001031069378479233,-0.0009424958180728032,0.0010629708336989253
191,0.17928989161741454,-9.383923273121674,-0.24556550103695415,-1.2607702401552438e-05,-0.001063542022769261,0.0003300021709874999
192,0.15732220844956304,-9.395638362013905,-0.2667398706779939,-0.000512939255824805,-0.0005420531791024153,-5.6631298082603285e-06
193,0.20131086114787772,-9.390362721510504,-0.2804485835385829,-0.0010431092772149697,1.02610035310968e-05,-0.0003107874811275277
194,0.3151421786365044,-9.358412818161675,-0.31320756159407986,-0.0010382234480344,9.330763900480248e-06,-0.0010730286526021
195,0.3069657145014539,-9.373506633921656,-0.31315080018334146,-0.0010382234480344,9.330763900480248e-06,-0.0010730286526021
196,0.21433040367660555,-9.384496590748391,-0.27067776781360087,-0.00033872008605243973,-0.0007251530490328962,0.0003895975932656904
197,0.2166349907865688,-9.389107943572547,-0.24027016416512756,-0.0005140468376319541,-2.5377262195811975e-05,0.0010637538014343435
198,0.2534225846877872,-9.387105872319074,-0.21748969753796527,-0.001044421432013706,0.000772754234644646,0.0010644749410190497
199,0.22176050888639567,-9.381532286528639,-0.19601615212024207,-0.0010513207699052894,1.1824434352081348e-05,0.0009702924699780577
200,0.16644913385517143,-9.390335428585196,-0.25894760120219557,-0.0010458507903507476,1.0782975149934354e-05,0.00011691764465335749
201,0.18975564705062242,-9.376586310309161,-0.21332929709815746,-0.0003368454961149365,-0.0007249518625219705,-5.505154454249948e-06
202,0.22019249191397133,-9.382621185166403,-0.21926727257279977,-8.705269707101791e-06,-0.000547939763931884,0.0005141158790264905
203,0.2374151848544424,-9.380152387863296,-0.2618900443764942,-0.00029809002611735246,3.213919157359089e-06,0.0001549876929802963
204,0.24143807114989146,-9.342541042742416,-0.2797361932840138,-0.0010310743490400884,9.766673388786307e-05,-0.002050618965813545
205,0.2755868331256908,-9.37414981282776,-0.22265188490455967,-0.0010281835650259705,0.0009497347444921982,-0.0011922736324252207
206,0.3393441253217263,-9.385761758999667,-0.18189297849123914,0.0003851518995332061,0.0003328897939739947,0.0003962943126170446
207,0.28914784361877033,-9.381417013938771,-0.18682583761551802,0.0005326573284890941,-4.186972612790652e-06,0.0010700580826393208
208,0.23318407971352134,-9.371740062823823,-0.20387404273688378,-4.898875897678187e-06,9.327236661446676e-07,0.0007642765977116671
209,0.29390347921500437,-9.367821137591385,-0.18847278779242557,3.023540706612688e-07,8.896168502851429e-05,8.953352268779329e-05
210,0.23185854548432677,-9.36835567588133,-0.14345215966279745,3.198274215755796e-06,0.0009410287177368334,0.000947077565160221
211,0.17186784771633906,-9.398406020165059,-0.22686093827808038,-0.0007151032578652257,0.0010734085488845616,0.0017975491512135986
212,0.16335742388044666,-9.397296518604492,-0.2483993544552117,-0.0005501841351530471,4.3367662151759957e-05,0.00161584970457063
213,0.2135532047035925,-9.381735086155825,-0.2413369636216095,-0.0003081585212951185,-0.0007589065618359322,0.0007594800527511152
214,0.29180664663951184,-9.380714316216357,-0.26252973464591534,-0.0010439279680375508,1.041687853618667e-05,-0.00018306302973584288
215,0.2148516900743174,-9.358872432916922,-0.11210247429504042,-0.0010329828727975612,8.332982235927882e-06,-0.0018906139713013143
216,0.21465365086376326,-9.362723118872738,-0.20308632315802846,0.0003978530675563667,0.0007206771518353879,-0.0014000121441770678
217,0.24185602673312995,-9.363636420306175,-0.2236948944193159,0.0005581226799309065,0.0010571465605582558,-0.0010584980582949302
218,0.25345059481475074,-9.362482896668574,-0.1948915579657261,1.2413318293529349e-05,0.0007625914596046593,-0.0007618929969936296
219,0.2224667380805091,-9.367100904623689,-0.2072229879175775,-5.624058454451085e-07,1.0707951231697286e-07,8.77412767883465e-05
220,0.21909995873078236,-9.37781076647828,-0.19218684235917585,-6.03238539994879e-06,1.148538714463964e-06,0.000941116102113036
221,0.20261054242631715,-9.373592043648992,-0.12391947331896902,-0.000719556216243213,8.55344821982756e-06,0.0010627004140789497
222,0.208481070136404,-9.3688261587439,-0.142520985956137,-0.0005432884584940335,0.0005194855371843442,0.0010662181202421728
223,0.19638541248294855,-9.363542969407614,-0.21360091285791374,0.00029804748834326287,0.0010622575552688778,0.001073830474227161
224,0.1333272269653998,-9.360094362018987,-0.2536602881321551,0.0008778236555046179,0.0009694263431953713,0.0009897506661054286
225,0.17565245307624963,-9.402890786568825,-0.19754009750436485,-0.0007969056420363302,0.0001343690776147271,0.00012238338227708073
226,0.20691577889054868,-9.395946495137872,-0.19354058024911602,-0.0010357387258709974,8.857684113606154e-06,-0.001460671663155059
227,0.20963352513539962,-9.391204047955931,-0.19464770328200814,-0.0005317646892233296,3.537921685403208e-06,-0.0016240705736239869
228,0.2146684021262466,-9.388502535963113,-0.1887678405253715,0.00029573869850216326,-0.0003029969326554103,-0.0007667295998499748
229,0.2612352848579735,-9.377777272398575,-0.17098347067940717,0.0009508327285257185,-0.0009875764733860701,8.530009078174185e-07
230,0.3497334849079321,-9.38014249869303,-0.11902541219369357,0.00012328193952735917,-0.0001280460163160349,1.1059737762432845e-07
231,0.297426424664759,-9.396284576899369,-0.16012437229206347,-4.655105473518675e-06,8.863108872809567e-07,0.0007262458261039066
232,0.21873758870536703,-9.415132043655586,-0.26586806764997467,0.0004921149719506435,-3.181624623521228e-06,0.001583053135446264
233,0.16773463420954435,-9.408043033261661,-0.3253168516377904,0.0007402003853973174,-5.410949571765379e-06,0.0018396962796800745
234,0.17038099891642,-9.35925437695132,-0.23925602745535013,-9.024170344528376e-05,2.0515951056857616e-06,0.0009806890177386572
235,0.17519068370174465,-9.370444627623398,-0.15073674193843134,-0.0009206884125888423,9.515019467387315e-06,0.00012240257173585828
236,0.1820450446034637,-9.405220081660666,-0.21684647982877847,-0.0010450620097039,1.063279490612472e-05,-6.140502093113179e-06
237,0.23312639256924594,-9.40790411728507,-0.2530493867074547,-0.001031735471013484,0.001031776150585397,-0.0005131888333985803
238,0.2887139397824085,-9.382360415295452,-0.25798500469125046,-0.0016131329941245001,0.0012511136728098732,-0.0007718734769377915
239,0.29368486866096777,-9.35139506867603,-0.2773857060615068,-0.003061414357784428,-0.0009483044767150587,-0.0001928694264137288
240,0.2566502958139742,-9.33974297352635,-0.3129028763139723,-0.002206186674146794,-0.0001078676830729914,-0.0018913395301531938
241,0.23309796633806618,-9.387612416584684,-0.28154936874341113,-0.0020820725242527206,1.955577460705741e-05,-0.001421495321734848
242,0.20703569639001984,-9.395289376409908,-0.22054583560534813,-0.0015861602681641568,1.5496381653638613e-05,-0.0005648533716446862
243,0.20875393694793742,-9.3832761478837,-0.22716872332243443,-0.0007484640986776497,0.00030434297763734183,-0.0003008331484333552
244,0.2571271252781483,-9.390383297375221,-0.3575769114303025,-6.752016961742268e-05,0.0008953592711871595,-0.0009786365567791525
245,0.20277768720398895,-9.329588470952634,-0.2642852734102119,-0.0009256386372690914,-0.0007971455330592369,-0.00013851178642801913
246,0.16475506655281494,-9.36790807868232,-0.20840930521155793,0.0010757866867436993,-0.00035187737446631473,0.000728904272127087
247,0.16907744991450604,-9.388923456367188,-0.24460825869556602,0.0005863224247400141,-5.322928104962284e-06,0.0005596570955026457
248,0.19751450254922526,-9.386298569533018,-0.28431832874384294,-0.001047975394733415,-0.00028573283874988337,-7.592412259288715e-06
249,0.22005389347468557,-9.382358934085584,-0.22766782715180936,-0.0009722057725389301,-0.0009708142211197977,-9.413293205844552e-05
250,0.22871132608826855,-9.369211523010991,-0.21072139962999129,-0.00012245320458685954,-0.00012933499037956446,-0.0009384269195573972
251,0.22758184570051262,-9.364737147621357,-0.23315701130415453,-0.0007065292308000004,6.791814216885158e-06,-0.00034752053258890205
252,0.20658666444085855,-9.390338641128363,-0.19323831508019784,-0.0015451158649896657,1.572050265542491e-05,-9.078683479996736e-06
253,0.21200285129959545,-9.40889950790862,-0.1667896928221948,-0.002087302422499095,2.055152342122974e-05,-0.0006055757267955436
254,0.2807986417722092,-9.381071975729833,-0.25145631476148844,-0.0019963021321945567,0.00010080854278404631,-0.001980119446070995
255,0.2649266819806405,-9.380110827208064,-0.31793910756082244,-0.0011621797407377712,0.0009454051432204822,-0.0002634830548296523
256,0.21116599693713028,-9.384125960136199,-0.23872381394468328,-0.0003311708459049861,0.0010682619999496953,0.0007260856986189922
257,0.16606563684985365,-9.412556975523085,-0.26291437152385666,-1.3727443870950928e-06,0.0005573151861366651,0.0010696120869603922
258,0.16544886957782928,-9.430864492133448,-0.3091491707849625,0.00028293628361145937,-1.6462308871592345e-06,0.0010685907892303901
259,0.22406549691801397,-9.399124791703812,-0.23898736495237174,0.0008766850694185746,-8.987739130547613e-05,0.0009893655167748502
260,0.23705164583839045,-9.35774579685137,-0.23613934741069467,-0.0007980442281227344,-0.000924934656886296,0.00012199823294632273
261,0.23823412039223968,-9.352208457503384,-0.19973955192083448,-0.0010345499579328217,-0.00033577627857926727,-0.0021750276397643395
262,0.18308861714592797,-9.37701242341347,-0.21464419016346054,-0.0005328082538346615,2.8981928040807788e-06,-0.002187078197915603
263,0.16474937322523509,-9.399729427154625,-0.21719528950900516,3.945130558590892e-06,-0.0002956378417403774,-0.0010683301164704374
264,0.27162342131824746,-9.388944074289983,-0.1410679615231362,-2.82018242197212e-06,-0.0009838428843503078,-0.0010717016676366237
265,0.2475749973916283,-9.38750253695073,-0.23754269999381555,5.545717277626089e-06,-0.00013281731084413564,-0.0010675324504888857
266,0.2040078121770456,-9.394717162179534,-0.1585802516455761,9.286953843539267e-06,0.0007190887774664485,-0.0003418667351239352
267,0.21785547054172638,-9.397672748493743,-0.2070969574830281,-0.0004921118557404691,0.0005624290200364402,-1.9314425006063624e-07
268,0.20860629564720867,-9.392172084234119,-0.2686891917823569,-0.0010469495086075015,1.0992166103511724e-05,0.00028832934575559585
269,0.09543703652735001,-9.381469530524328,-0.1679799428823007,-0.0009712876789081468,9.176285738565093e-05,0.000980652591348373
270,0.15988681265068946,-9.402347669094409,-0.24641955338216093,-0.00012153511095608371,0.0009332420881258644,0.00013635860384941066
271,0.19792978846363815,-9.350893531890643,-0.25754200070272537,-3.673770551942283e-06,-0.00037371625326168496,-1.8308547475024853e-06
272,0.2082429536249688,-9.357329076172942,-0.19361771158816915,-2.234039088047134e-06,-0.0005586620930411989,-0.0005100385782767462
273,0.2152054445901,-9.386014120497679,-0.1755009869422078,1.1603608382015224e-05,0.00029132168460259747,-0.0013595200468972564
274,0.24428483531295744,-9.364989220540693,-0.29878238574957083,2.20535494353142e-05,0.0009013297972565405,-0.002049996705152614
275,0.2615997005401233,-9.347941582359375,-0.1593783614723827,-1.5336564942299205e-07,-0.0007996789126577387,-0.0012041590232076637
276,0.2862203350716005,-9.367851993825923,-0.2780203353584687,-1.1766884084802706e-06,-0.0003462172126308171,-0.00034844266553685693
277,0.25051634836941944,-9.385112756552898,-0.2930537300668542,-0.000992989543474569,1.0102992991470677e-05,-5.834538346554445e-06
278,0.19754475092382986,-9.39435636536485,-0.2144741064933544,-0.0015166027774108186,1.543040138913494e-05,-8.911148278895259e-06
279,0.1858387003612228,-9.396515892191855,-0.16989447235962388,-1.2905584181388881e-06,-7.92832991567315e-05,7.921068305351842e-05
280,0.11176955466722326,-9.35812419120807,-0.27047590928713655,-1.5126437672243098e-05,-0.0009292674134608903,0.0009284162912305321
281,0.08149372626304915,-9.384119061601698,-0.2713875377060971,-0.0007103753919787139,-0.0003388763722584384,0.00034158882473502895
282,0.1278066067737308,-9.404155345162243,-0.2674748488300513,-0.0015329215508964606,0.0005196173602237383,-0.0005125311383876274
283,0.20726975924598137,-9.399372654403162,-0.26548880349972415,-0.0017899536875132537,0.0007893780918293216,-0.0010737065831314
284,0.2509243428257927,-9.373909782838496,-0.24914753705809545,-0.0009609169003883187,8.54422237625606e-06,-0.0010725744202089757
285,0.20378943192961899,-9.38075984424731,-0.23310551892058406,-0.0001250002116903538,3.93388124087662e-08,-0.0010676627995310209
286,0.21580076860799338,-9.371576882183557,-0.2739890035248539,1.8496605336212427e-05,0.0007146238056789722,-0.0017828340020846327
287,0.21980742661126004,-9.378137072133017,-0.2923073309668225,-0.0004757433246887777,0.0005625031188013234,-0.0021349423393091926
288,0.22826366131559023,-9.40142535250871,-0.29046465085939865,-0.0010379806022874395,-0.00028221280957456,-0.001558558126665625
289,0.25987304172253173,-9.423048832550892,-0.28556032974730666,-0.0009781120580061396,-0.0009760708763595164,-1.0520265484818871e-05
290,0.18532292755001215,-9.35545586887116,-0.1982823187724332,-0.00013382946960857256,-0.00013355018641713622,-1.4394276590810054e-06
291,0.16783958699509424,-9.360718221931931,-0.23739188186051904,-4.602918605232691e-06,8.763747451681545e-07,0.0007181041211552791
292,0.15428064014822784,-9.390357471570827,-0.20390825954533498,0.0004923760983620608,0.0004994749005865221,0.001072257546289813
293,0.1412535485148034,-9.405277410355772,-0.15553482292988405,0.00047744936058619487,0.0007697908173738126,0.0007823908466958136
294,0.14422564635021684,-9.38089551214135,-0.2005686601179236,-0.00104430162418146,8.798341451180657e-05,-5.76155751178623e-06
295,0.20578961160236198,-9.390095222599115,-0.18006809267936333,-0.0010359357244818963,0.0009390089880179944,-1.5923403640138438e-06
296,0.2596709934105148,-9.387844382637958,-0.2436565634796941,-0.00032725567786699505,0.0010665583768303818,-0.0007142246360268074
297,0.25273872276861375,-9.38260731444975,-0.2354852386466861,7.417579682288878e-06,5.759888270994828e-05,-0.001066599591966025
298,0.25865332499932076,-9.387196448375068,-0.20050830934439823,-0.0002899399639253306,-0.001062004579221471,-0.0007833729041135617
299,0.3495594041040245,-9.407036628837483,-0.22566304812156596,-0.0010540135787224713,-0.00089997029995627,-1.060159251871965e-05
300,0.24134149643421995,-9.37743175089116,-0.19222537200038822,-0.0010372817793232608,0.0008020808470564307,-2.2631582231734774e-06
301,0.22239965557175986,-9.360838761561261,-0.19531014674592864,-0.0003441395598506519,0.000353541363905565,0.0007164425610403384
302,0.2176395178065862,-9.372845550782687,-0.17755353461340795,-0.0005014850897582634,-0.0004961452938228494,0.0005582993490170782
303,0.19359736040425957,-9.385524472630042,-0.18293450888849475,-0.0013367407866001048,-0.0007615052574507887,-1.1606463729101218e-05
304,0.14279624575522037,-9.367582631825378,-0.25435037683660666,-0.001942227347878628,1.9848875221670834e-05,6.479806162972274e-05
305,0.1625159533750482,-9.384601711723278,-0.15631920674837,-0.0002750790517379197,3.872581489959997e-06,0.000928000740160745
306,0.19837892936881074,-9.377105188107654,-0.19219122340240494,-0.000696648378957826,0.0007216620393652426,0.0003501965031541164
307,0.21722705275102744,-9.378394244778068,-0.23984627307982714,-0.0010363083895865875,0.000572798707535057,-0.0005059387880263458
308,0.22887880100890898,-9.386125306510266,-0.25004845806957143,-0.0010382234480344,9.33076390048025e-06,-0.0010730286526021
309,0.25797574317834815,-9.388997301042515,-0.2120332671898042,-0.0009634994454136353,8.389882808712735e-05,-0.0010722249447454929
310,0.3291590780011411,-9.401596451015648,-0.23551615475734625,-0.00011921685701607206,0.0009264195180294434,-0.0010631441069197196
311,0.27212503049615255,-9.400014508612205,-0.26318204165844333,-0.0013964689806895776,0.0003643674295783489,-0.0003580194250714179
312,0.27974465392404757,-9.39476970160787,-0.23289920746691478,-0.0015990340753125683,1.6269083760417018e-05,-9.39549232030513e-06
313,0.2899947403266428,-9.384152172786221,-0.19169241854034055,-0.0010450620097039,1.063279490612472e-05,-6.140502093113179e-06
314,0.19104944337184754,-9.366749946210716,-0.21216096656443814,-0.0011189296061408708,1.1470813328052746e-05,6.82785348529734e-05
315,0.1785442629300055,-9.375033385449235,-0.2581169043345992,-0.0019611011726926217,2.1025141900210267e-05,0.0009167371276492886
316,0.16966443478295923,-9.365786711987738,-0.20658572066216702,-0.0007065443006969413,-0.0014187048819846583,0.0003411337642060963
317,0.19143076622398258,-9.362548666130792,-0.1596089321291832,-1.1096473080305553e-05,-0.0011287945954595521,-5.530021576570717e-06
318,0.23115627258978222,-9.381183549424335,-0.18232071797154953,4.664276589675862e-06,0.0002865420356114507,-0.00028627958984728393
319,0.26122894209447217,-9.42136946965795,-0.2925046636483736,1.6570470129046975e-05,0.000988681506383471,-0.0010620381712972877
320,0.253533446437954,-9.372706014542127,-0.2226865451768702,8.204570429448764e-06,0.00013765593287730758,-0.001066207388445106
321,0.23939899833676503,-9.376986785030594,-0.225458959934487,2.2617364984627954e-06,-4.306243315327198e-07,-0.0003528548818280348
322,0.2705539806235155,-9.39641631022803,-0.22158398184421957,0.0,0.0,0.0
323,0.2978034744752337,-9.404210921688305,-0.21131070548859518,0.0,0.0,0.0
324,0.24617212460017127,-9.382726740778983,-0.22218366319156407,-1.6630776647918463e-06,-7.311150701892767e-05,0.00014669653787116474
325,0.1264109734455875,-9.365298111441954,-0.2841786440553951,-2.0974072604437747e-05,-0.0009220531842250301,0.001850078262288828
326,0.1328941923480715,-9.395779031721494,-0.29299149009789127,-1.257257267094693e-05,-0.0003508262283413409,0.0014190262541839498
327,0.14894456499712883,-9.410019440931606,-0.24752856114797156,-0.0004981506011267377,-0.0004927919245879887,0.0005617278246666474
328,0.16052890947313003,-9.410036101957228,-0.18949930034708323,-0.001055521047155,-0.0010533183238868,-1.1352852211556028e-05
329,0.18921473810034137,-9.415475543622014,-0.17482207515484544,-0.0010543404908555545,-0.0009807928210155367,-8.381192849035535e-05
330,0.2676126001011201,-9.395947333352158,-0.23341412018250574,-0.0010405046116014492,-0.00013080870671145623,-0.0009330175366672619
331,0.22591120981575413,-9.367976259663756,-0.2602535386871486,-0.0003471134789561482,-0.0007084862879404903,-0.0010724086514038258
332,0.20888860451784885,-9.387550867997323,-0.2461691178898845,-0.0004876782616051995,-0.0005624895545864902,-0.0010725347533811912
333,0.22185662353984759,-9.422827113357876,-0.2694710636553141,-0.0013201230551168406,1.2528878842137135e-05,-0.0007890245928185127
334,0.22346134859810463,-9.415544813312579,-0.39361390741824465,-0.0019497177615387968,1.9837051668487014e-05,-1.1456014939343357e-05
335,0.19556517684322638,-9.361056608725711,-0.27581692347247655,-0.00027709948584358503,2.8192987346291876e-06,-1.628161733010558e-06
336,0.202982291557049,-9.346741533162561,-0.26800400886667103,4.563778454017744e-06,-8.689226385834655e-07,-0.0007119978424437369
337,0.1887544838428295,-9.37454076787095,-0.24276800904895568,-0.0004878384720822896,4.882655015437436e-06,-7.278815640440707e-05
338,0.15685515585922857,-9.400800324972586,-0.20669925712784928,-0.0013266837202251017,0.0002986164827529167,0.0007755270022236549
339,0.13624164737223604,-9.378197876586984,-0.207951216906152,-0.0020105845378344893,0.0010845138620873456,-6.66275603705641e-06
340,0.17952881044015062,-9.384978211277836,-0.24393951592848126,-0.0011738829508372802,0.0010760009927173403,-1.7465235086890866e-06
341,0.27693814207979317,-9.388065715346283,-0.14620952066744458,-0.0003332761759505309,0.0010666266851843125,-0.0007081535021590274
342,0.2922882952005993,-9.396733303831889,-0.18647077999812903,-0.000963284501414886,0.0005761405575282818,-0.0010698408246959785
343,0.27559475294099417,-9.402266478535024,-0.294117983106415,-0.0020842667366207,1.997354265158725e-05,-0.0010791749204249
344,0.3184440186569192,-9.393993125222957,-0.2891824193842554,-0.0019459925124421004,1.864845979836077e-05,-0.0010075804012336113
345,0.2607278012330234,-9.402311427820461,-0.15165508132787053,-0.00027884421630115043,2.672166066647256e-06,-0.00014437772270243742
346,0.1990063582238281,-9.378209590904003,-0.20365038836779095,-0.0006961027714281679,7.082372082665041e-06,-4.090111864450638e-06
347,0.154412285802442,-9.370830914791592,-0.2796598981195647,-7.114710885951827e-05,7.238734253494922e-07,-4.1804119450730475e-07
348,0.12234867197462748,-9.36991257815312,-0.29130808177084644,0.0010432440932913742,-1.0286671898221569e-05,0.00028975474334354956
349,0.09596432011321901,-9.351636810758698,-0.20546042805988585,0.0008319206600698324,-7.722768050071734e-05,0.0010013744723386358
350,0.14021342013819837,-9.368150281536868,-0.2489134058693098,-0.0016795102244684052,-0.0009037720767113925,0.00012909095598188624
351,0.16005397011777628,-9.388731608404168,-0.22205584647894255,-0.002094604352638699,-0.00033466758135465726,-1.4030553359899475e-05
352,0.20266443516395222,-9.397938554321033,-0.19559164926203926,-0.0020911052982903,2.127557365723172e-05,-1.2286769915891252e-05
353,0.2473302877826892,-9.392097648835337,-0.20549109192246803,-0.0018100686938794057,1.7762224163725783e-05,-0.0005767939958710255
354,0.2565746255521265,-9.373992080115377,-0.2607143195810943,-0.001032504438246953,-6.111901484571848e-05,-0.002071770117740671
355,0.27244658534369515,-9.360352411845769,-0.2387738748770116,-0.0010463454536320427,-0.000911102151253799,-0.001221763218647903
356,0.275926054239642,-9.362902958089554,-0.22466526221907301,-0.0010556423462319037,-0.001762615871930843,-0.0010817095084177115
357,0.2771674112494374,-9.372418028803523,-0.21852407081682082,-0.0010462456074097784,-0.001130900243203203,-0.0015748478627618113
358,0.23995330936891004,-9.380267719788183,-0.2179721173740707,-0.0007585156624146437,5.903741954534859e-06,-0.0015745144257823134
359,0.13660919488102202,-9.37827625999658,-0.22003646163118046,6.622306273045938e-05,-6.915593954526205e-05,6.880376986769313e-05
360,0.17123892533535368,-9.36364873935577,-0.22910163820051088,0.0008883038721742769,-0.000927644937413186,0.0009229209987225195
361,0.15834298592973894,-9.346633089867014,-0.2393991591360872,-0.0003465601993376935,0.00035415178764105457,0.0010665833830597066
362,0.17005909948073816,-9.3734334857473,-0.26053877586472357,-0.0010382680821119069,0.0010752817339288016,0.0005708678583366487
363,0.212325901717351,-9.398727733262717,-0.2526799182786747,-0.0010383189125321881,0.0005126329588728271,-0.00028525830951452565
364,0.2594042578975834,-9.359006696971319,-0.17996664796744272,-0.0009813421958167591,-0.0009874205948923434,-0.0010775167117567637
365,0.2281413067929732,-9.355623947361844,-0.21795681730988786,-0.00013705960741908885,-0.00014489990494985757,-0.0010684358739310692
366,0.21523203291198506,-9.374029143401334,-0.28739555101300807,2.300876649677742e-06,-4.380764381174088e-07,-0.000358961160539577
367,0.22114101613127046,-9.372085632354036,-0.2959075473814008,-0.0009690528791476643,9.859453718048207e-06,-5.693892972369288e-06
368,0.24082462872463978,-9.36877702757845,-0.235196727980499,-0.0020883515446090822,0.00030140262394360456,-1.0914413387523825e-05
369,0.26187231811332434,-9.396040501896774,-0.15231561861601745,-0.0020156684085930626,0.001017435205170936,6.0371582926089873e-05
370,0.23109033548724656,-9.383896891325676,-0.29331596864568854,-0.0011928027008498213,0.00015893822149674633,0.000914493423631528
371,0.2046930693431429,-9.376186811424958,-0.22673869662243243,-0.0010449671934955494,0.0007172363591311367,0.0010642029561506712
372,0.19283711066843967,-9.376421874638282,-0.18059506151307284,-0.0010414415339224,0.0010758859447047,0.0010659599985343
373,0.1978623834897232,-9.374899578667158,-0.16057621615458284,-0.0013171393534940658,0.0007988888817732743,0.0007827547540425777
374,0.2146196919222438,-9.36319304131225,-0.11483830363196205,-0.0020906777085212586,2.119416251203969e-05,-7.899530892011689e-05
375,0.20211451148040183,-9.397271256882197,-0.24818579940706154,-0.002085207728966717,2.0152703309892702e-05,-0.0009323701342448134
376,0.23500734531617784,-9.390211660009937,-0.1983398107960845,-0.0013915016637208325,1.2925129380534053e-05,-0.0010751044199754601
377,0.21758611880289766,-9.378587667895836,-0.18779656360724267,-0.0010430570368546689,-0.0004823686163917468,-0.0010754375126313005
378,0.18344464385682635,-9.37304207028544,-0.2169247835822322,-0.0007739092999336626,-0.0007782913435164176,-0.000795722967747429
379,0.20434675162434635,-9.375995216389969,-0.21401643955673305,4.232408633479286e-07,-8.058313334926757e-08,-6.603006359181561e-05
380,0.22214258533004458,-9.402749657695976,-0.24192465676233552,5.893220417851611e-06,-1.1220423354962588e-06,-0.0009194048889165052
381,0.18424000681657282,-9.393314693769033,-0.19302331909634882,-8.151359600177301e-08,-0.0007052503489441247,-0.0010703368287739538
382,0.13525526969466778,-9.385584961023483,-0.22091627603586006,-1.9495944551343566e-06,-0.000573629478418059,-0.0005773167167850804
383,0.11276773401485593,-9.374768352704443,-0.2724918537212473,-0.0002704261623727865,0.00028087644412654603,-2.4260183214268497e-07
384,0.14517249718505035,-9.346539372366355,-0.2356763782021198,-0.001035884296275344,0.0009442405495418487,-1.5667106806131087e-06
385,0.19134547112415926,-9.353804175629463,-0.23567155635322062,-0.0010526160956745518,-0.0007578105974705664,-9.905144976157883e-06
386,0.1934000068070909,-9.390865413723432,-0.24545669078750482,0.0003329643944475157,-0.0003641031688697071,2.1025532542885528e-07
387,0.18923386221489447,-9.405581076265477,-0.29052442630553843,0.0005713933153783221,0.0004840136656870335,-0.00048598702107138233
388,0.21992188637714216,-9.397326538982137,-0.29552142731568215,1.635525012705526e-05,0.0007848886503708818,-0.0013414825438535203
389,0.3086352906141302,-9.383578532195427,-0.17827378465469565,1.3268612229502294e-05,-2.526283355987628e-06,-0.0020700442352348213
390,0.28266299277337703,-9.35147676314147,-0.19687129176855828,7.793496543960601e-06,-1.4838462578760043e-06,-0.0012158681189941714
391,0.23008626700392948,-9.390917304584493,-0.29196920291614475,-2.193319313292329e-06,4.1759801098237866e-07,0.00034218107530603744
392,0.20980291262131723,-9.396436076663036,-0.29785586329825015,-0.0004798536608811753,0.0004952659501649801,0.0005754396930046033
393,0.21812403058851076,-9.37463092021687,-0.23602968390605822,-0.0007627722007691367,0.0010718182205482437,6.690522158651992e-07
394,0.22795980731659654,-9.371325969979047,-0.20018980425694166,9.010904600801792e-06,0.001000288923523148,0.00013294906380611614
395,0.24046498775843853,-9.369369551350124,-0.22769673349860942,-1.0300090338840876e-05,0.00015134724631719835,0.0018363307882235398
396,0.24939988062019974,-9.373838620133112,-0.18220020454742925,-0.0013773170174028986,0.0007168410947235726,0.0007217377073271033
397,0.2089368260185963,-9.376913642096866,-0.20448262278823567,-0.0016015477410892358,0.0005907438967539749,-0.000496988002639911
398,0.19768052876732373,-9.386421255419679,-0.2600484130274356,-0.0004958910957182786,3.812901209473945e-06,-0.0010698420541862832
399,0.3079771784189896,-9.408210631749466,-0.2527759122586401,0.0010512798632808112,-7.507668506923322e-05,-0.0010610569835641434
400,0.24016062294592339,-9.363000394734676,-0.1989154151801153,0.0010429139635811675,-0.0009261022585754658,-0.0010652262007118814
401,0.2599299534535038,-9.375471506322581,-0.21944792298208188,0.0010552284740040871,0.0003265978300492553,-0.0010590891598835951
402,0.2026428894390431,-9.390283575836394,-0.23234177890695293,9.826547285871843e-05,0.0005734601125557253,-0.0010635641359329623
403,0.12044962029035855,-9.390087676224798,-0.25061556768499826,-0.0013115837238186741,0.00028848767551999176,-0.0002445580539650546
404,0.13915034634240064,-9.376620159307574,-0.3019809513702395,-0.001971157800872208,0.0010865063596201682,0.0020657285170027117
405,0.21177658660079068,-9.396031911122957,-0.1679724072050959,-0.0002930644094914774,0.0010684461695881994,0.0012213802539685454
406,0.21828187686431633,-9.402273299438406,-0.21998631254952164,0.0006824773596048602,-0.00034373597056717905,0.00036678035684907387
407,0.1855071348148262,-9.389530576249324,-0.23236657738566646,8.770360654564109e-05,-0.0005783916187698391,-0.0009807424823474096
408,0.1685108715487954,-9.379176099398963,-0.20202590525121564,-0.0007606083239483188,0.00028033279429304177,-0.001862256052170309
409,0.22647621810924695,-9.397672395637217,-0.21004288286355727,-4.43986182893179e-05,0.001001553555365575,-0.0010003759027789449
410,0.3183411975089477,-9.398088250151904,-0.2635718362619722,-0.0008941511862414853,0.00016007432462526494,-0.00015608191527989755
411,0.24723898426622454,-9.384220410770379,-0.23526501246425194,-0.0010405634648352738,9.77629244518217e-06,-0.0007079612133511282
412,0.1709432460294023,-9.371422305734935,-0.21359897541311013,-0.0005646927665249223,-0.00048249892018108767,-0.0010726038438117608
413,0.17221063323837604,-9.377202694441014,-0.20508979783168452,-5.381856420053517e-06,-0.001064917790944564,-0.0007973064397380083
414,0.27927453331941704,-9.409977044275996,-0.1919136526399775,-8.864730579229466e-06,-0.0009418018333706558,-6.589430393663446e-05
415,0.25330223547866826,-9.370574866826356,-0.25502782972995097,1.3337048374470634e-05,0.0007592078544395683,-0.0009109306949657334
416,0.2028294568727043,-9.385974198209428,-0.2530441117973546,-0.0006853627457943017,0.00037213607903858575,0.0003331477540723686
417,0.13384520969075192,-9.404939164723459,-0.25694505480827934,-0.0015347825661833256,-0.0004694873346024237,0.0010555561103050947
418,0.1217076180436806,-9.398529977445541,-0.2576528344867961,-0.0015657607064672443,-0.0005001178997631067,0.0010552242887769921
419,0.24203404182209115,-9.359387447475331,-0.22297624947107486,-5.535354844951971e-05,0.0010657831635420766,0.0010111494424723097
420,0.2502105059571417,-9.420704572923544,-0.2287630319870945,-0.0008858002575929735,0.0010732465879037928,0.00015286299646968883
421,0.2635191965519168,-9.390934895637747,-0.1860438342381744,-0.00103248592713565,0.0003743379613363455,-0.0014059355456779114
422,0.25132670444065086,-9.374349718912796,-0.23130433486403185,-0.000555861678230213,0.0004899734954698006,-0.001161378791943706
423,0.21663603694608846,-9.38358594039495,-0.2967524881780432,-0.0002556314792507377,0.0010663425382818423,-0.00026979853424105625
424,0.1835716730092043,-9.392652338064613,-0.25424478883368845,-0.0009700380843342373,0.0010129989817877299,-0.0010078403861972479
425,0.2412878904330904,-9.373140075927058,-0.2983304272279189,-0.00014795727489041983,0.00015450998391980614,-0.00015372315734242149
426,0.22682812884503747,-9.352087073619948,-0.19727474185980703,0.0,0.0,0.0
427,0.24503689206504892,-9.3403650163517,-0.20820206267543467,3.301868889668402e-06,0.0009715093946832714,0.0009777541691391638
428,0.23545492274293703,-9.348125746425628,-0.2936132625415022,0.0002734964820764976,0.0018561918244577138,0.0018724289606993824
429,0.10311771091175136,-9.379207952303243,-0.29953552479791423,0.001048101685229791,0.0009955381415773083,0.0010779515559817085
430,0.16323877072829932,-9.375268040309164,-0.21309388660725617,0.001039735785530227,0.0001445125680711163,0.0010737823388339701
431,0.09884892182304186,-9.385379071277672,-0.24653923058396282,0.0003578999463910355,-3.2165329208194125e-06,0.00036989811583374306
432,0.1616154843187242,-9.375208272359629,-0.25482004765133404,-0.00046943127302333926,3.6537163814075676e-06,-0.0009744377709165336
433,0.27295184248726606,-9.351570506209997,-0.21710603016480196,-0.001030456801039721,0.0002796910198794985,-0.0018672536774799909
434,0.2391945006133661,-9.341972565216372,-0.17307500132682038,-0.000971544020610874,0.0009558869839776685,-0.0010680514835769786
435,0.22380350930032933,-9.399901006866354,-0.243350064830543,-0.00015235913131212366,-0.0007546690465986318,-0.00107147829719458
436,0.23203088613877965,-9.376154544096737,-0.21368552101574606,-1.2503652241120817e-06,-0.0003678951535026107,-0.0003702599502504645
437,0.250144133306306,-9.380193050919974,-0.19946976357208457,-0.0004828567259285693,-0.0004781555497635595,0.00047975498503926585
438,0.2526672107153753,-9.40070721294719,-0.20133602990633773,-0.00026190110891341565,-0.0007894788000235093,0.0010615488933001984
439,0.21748499023798296,-9.383569089299435,-0.17770808252682826,0.0021407743855179676,-7.83501132382154e-05,0.0010213369224445039
440,0.22758532828716296,-9.391348402965418,-0.17218636820818808,0.0029737951540708685,-0.0009389220295103721,0.0001687045006500006
441,0.21920258379539898,-9.407100736988767,-0.17562048510329725,0.00039353247675480603,-0.0003713568061002574,0.0006983062425276016
442,0.20778908078252928,-9.41165061439324,-0.19641594393027023,-0.0010566476932134423,-0.00047096865505529554,0.0010583818799404661
443,0.1840857532881746,-9.400448137312875,-0.2097490915344687,-0.000525865413875956,-0.0007880952889626724,0.0005185278257005522
444,0.14361999350076748,-9.37871951673593,-0.1879794103796138,0.0008837294604684494,-1.022379927910545e-05,-0.0010617357764398114
445,0.2629001761767988,-9.38592794520579,-0.2519946554270524,-0.001624805503924686,1.5298837218599676e-05,-0.0010764752503241058
446,0.2666752024956423,-9.37414297376617,-0.25191582340506663,-0.0020797944386904505,1.9122037488212544e-05,-0.0017769008309166095
447,0.2333766369841201,-9.384031187705904,-0.2183903617410758,-0.0016064138842430814,1.4437228044409264e-05,-0.0016602669964679616
448,0.2024907250130269,-9.40065239586623,-0.17586438484480424,-0.0013047229850290452,1.2354167019158473e-05,-0.0008045396283701821
449,0.19715602793975928,-9.390265488333151,-0.14911364049399034,-0.001979749304258823,7.652402349349932e-05,-1.1359540673864733e-05
450,0.21831864099518417,-9.398036271602784,-0.17459064765450544,-0.00029876512886401244,0.0009105318440658493,2.6375296802404555e-06
451,0.16961762685159837,-9.384414046113836,-0.1564619234051121,0.0006881415534137634,0.0010578606229868991,0.000705613365306636
452,0.15061766384122932,-9.364281963854861,-0.1995292952505075,9.630812137850043e-05,0.00010055544261674892,0.0005850846903063809
453,0.13946622407601908,-9.368684875210537,-0.24475985684757184,-0.0007846574672357297,-0.0005190821693342635,-0.00027653675333292737
454,0.07709191189188362,-9.42325376019354,-0.1819848853900168,7.055481096109644e-05,0.0009507622603715571,-0.0010060471511291482
455,0.11989810648127297,-9.394505811578838,-0.19710218503978819,0.0008842697207054901,-0.000758752311002781,-0.0001560991394219413
456,0.22661821375723679,-9.390705562498928,-0.179149461277687,-0.001003661633750391,-0.00035997736283142846,-7.689257338435141e-06
457,0.2880323916963582,-9.390129914074954,-0.22712610549997964,-0.002092741643609333,-0.00046018656293958824,-0.0004968437015487293
458,0.29766887362096023,-9.389987570516832,-0.2938350449021139,-0.0018312876140939,-0.0010466578801801801,-0.0010828393790710857
459,0.2885326181114132,-9.394295150210338,-0.27925622859267873,-0.0009944495401969468,-0.0010000803308159087,-0.0010224794293961959
460,0.1889721430552096,-9.390478372633094,-0.27822515468703135,-0.0001556369313539217,-0.00015651818167141705,-0.00016002376624581335
461,0.22220729047544807,-9.377838599920885,-0.20318427588537996,0.0006808170789341613,-6.926850561666577e-06,4.00029726408953e-06
462,0.2129626681101195,-9.381095237009003,-0.1924238392924501,0.00010171849384753133,-1.0349164673464193e-06,5.976703952295198e-07
463,0.1899965849401538,-9.390199023794683,-0.22474632016797697,-0.0010467799012855703,1.095987364164503e-05,0.0002618688046724843
464,0.24871056424184007,-9.381848871831071,-0.21459148690626445,-0.0009981701459905177,1.1325202444910649e-05,0.001006565319853263
465,0.14578330983590979,-9.373167751530952,-0.2085770231279052,-0.00015678347773805272,1.7788596789163608e-06,0.00015810211520652832
466,0.18687105446679592,-9.362791563069386,-0.15545041998598558,-0.0006688947736417372,0.0006985186824775665,-0.0006949615462315468
467,0.22056009935144483,-9.360833789059138,-0.16894570830889638,-0.0015008426799365748,0.0005979707435051098,-0.0015542312601506763
468,0.22869038919977677,-9.359138539591244,-0.2140958725409826,-0.0018196499117003496,-0.00025026481906470564,-0.001879248985283408
469,0.24712746934421773,-9.346408963137112,-0.2022595424338612,-0.001047972266433962,-0.0009472159715884498,-0.0010238976388325795
470,0.23221744650971382,-9.38340919649932,-0.26610974959476186,-0.001036710446589296,0.0007558766346260771,-0.0001621843792123899
471,0.24350192539436177,-9.387157427448852,-0.27198055437859614,-0.0003619154357245942,0.00037590120633632573,-3.2467771245619805e-07
472,0.2250942913963654,-9.380265759447827,-0.24565252617907002,1.6294381175635333e-06,0.00047942982964016426,0.0004825115611910233
473,0.18868999039945672,-9.380627453704067,-0.23932013953240294,-0.0002584816529703354,0.0008016669415151077,0.0008026106731228033
474,0.18084806323824612,-9.39886589419289,-0.300927032176827,-0.001045582948203903,-4.2359949645344e-05,-6.40011621772901e-06
475,0.27944660133740146,-9.369101534923562,-0.23758884767149493,-0.0010539488479035482,-0.0008933855231517141,-1.0569333365502097e-05
476,0.31086532467621536,-9.357964778343382,-0.30649567867624977,-0.00036990405375004055,-0.0003691321162615434,-3.978571593620728e-06
477,0.3864608991291811,-9.375977589160543,-0.26185519144846325,-0.00047437853464752636,-0.00047338857368083676,-5.102266232117138e-06
478,0.5660404625519779,-9.396325334648864,-0.18669362887408542,-0.001316298329696957,-0.001050665092465414,-1.2885109086666129e-05
479,0.877887308732987,-9.379020656376667,-0.2841372756228945,-0.002051296097081836,-0.0009905625556669304,0.0002454114363944847
480,1.2732433980866067,-9.361194807279317,-0.25588325418287666,-0.0012335836442885955,-0.00014284157762400846,0.004522172303609979
481,1.6053874236676986,-9.372241227918202,-0.316721533267925,-0.0011103331941935118,2.3060131250681465e-05,0.010176856547070902
482,1.9125719316548984,-9.333759068080889,-0.2969439874167981,-0.0011809547009200222,-0.0004418781746122485,0.02045992139960634
483,2.362452993538123,-9.316220914795306,-0.2707693339322865,-0.0015445782767326854,-0.0010070817433344308,0.035704992958746115
484,3.142958625888271,-9.432959597267148,-0.3969300288526091,-0.002402589719546781,-0.0009244756100047799,0.05494611620210571
485,3.8697019969507025,-9.399790696481773,-0.3803764347679232,-0.0017271326880878733,-4.9669847434364816e-05,0.0814162315641743
486,4.356708816651299,-9.233480579493976,-0.3281244295955568,0.0002678335695137973,0.0008181048680282922,0.11342940540329355
487,4.808945320609618,-9.114826976904059,-0.30758938644492495,0.0020580256934950407,0.0012197777950981737,0.15295024728206505
488,5.538884752513859,-9.091159924703485,-0.43956109487016237,0.002903992186290487,0.0010021990669452975,0.20051803642312657
489,6.828123690863367,-9.138354095369614,-0.8051791229962162,0.002541701690969676,0.00026961743182630235,0.25580826643941146
490,7.781403215314999,-9.140052467201826,-0.6101407338026196,0.0021204054065208622,0.0003498303262068799,0.3215349550986768
491,8.418463032670374,-9.004464630463643,-0.09446799251227778,0.0036570125055300413,-0.00026703384500707,0.3976366252905356
492,8.184673713138388,-8.967108697382592,0.21602095149758174,0.00608350536392631,0.0003858178439453926,0.4843055781171922
493,6.673966500234928,-8.950965895767634,0.12952067464927566,0.008564393923917429,0.0021750990545655563,0.581332963452228
494,3.681383768354081,-8.781715267086113,-0.3129151616359844,0.010264729531963182,0.003730780867746456,0.6865424403708136
495,0.19869101530062072,-9.07398372475049,-0.1608537319221984,0.009632302163078386,0.0012925363704990845,0.781278573143142
496,-2.4965630339906797,-9.024322696191803,-0.4972019328294431,0.008469391325693961,0.00021331700050587624,0.8553030449823642
497,-4.388810481395031,-8.725359645388437,-0.4253071302792425,0.00654099333047585,-0.0005916363492839506,0.8786472306690981
498,-5.441773179523157,-8.667166803590192,-0.22578617760516154,0.005420044276515796,-0.0009246621199429974,0.8629380445465133
499,-5.665422708954197,-9.382222727409975,-0.6163214603679101,0.0073100798063466315,-0.00022050582366974186,0.8376734465779635
500,-5.236398826103253,-9.04996666132913,-0.18277080549068805,0.010291717347545977,-0.001189524020115487,0.7625685986002941
501,-2.7520967131428593,-8.790851774507306,-0.06538300010875121,0.01131254658542502,-0.0021498988927191676,0.6771051305020163
502,-1.5241289480531581,-8.92624181305478,0.020308849505153267,0.011261321129120632,-0.001173673291136273,0.613951027972371
503,-0.9530585705247978,-9.136348766277173,-0.08146095669076509,0.009705278438823446,0.001345090572385648,0.5696315012267081
504,1.2104068938897248,-8.853651038462369,-0.6386725272697428,0.005772845509621755,0.0035470125990324885,0.5267142409835395
505,2.7206479164816133,-8.759527920345857,-0.4797140579879573,0.0006629038415380702,0.0002046074920623595,0.5360576128155929
506,2.7542374512165617,-8.914075577725015,-0.5072808016365706,-0.001744839340317009,0.00027643611456898605,0.5502574789807889
507,1.5696145956703798,-9.014498644111185,-0.4468176162687607,-0.0007887605997243743,0.0011493014300212898,0.5775210836526745
508,0.2182313041344614,-9.012351806435634,-0.4042948811550837,0.003081877626782135,0.002006702428254048,0.6168731284745826
509,0.13634738585528716,-8.99755651502109,-0.6074374561450299,0.008606915327140523,0.0027093375735621544,0.6617635793092409
510,1.5806957268882307,-9.236382831239258,-0.26431534571790183,0.013361034887698388,0.001002319467356689,0.7001961985385629
511,-0.20308937012147021,-9.138167657541501,-0.41279790217126544,0.015512469002161227,0.0013681822352555179,0.7269195543044288
512,-2.3605470741532306,-8.995061823168687,-0.0315908721831587,0.014805221141503976,0.002238086408394546,0.7365747320128893
513,-3.1400518665708423,-9.008251151427071,0.4864741676599858,0.011517913264572811,0.001560264410351383,0.7371967561324453
514,-1.638142078467367,-9.287715469263345,0.12878784708679195,0.006573366719597683,-0.0023556790278367458,0.7417398930747031
515,-2.1205534624354136,-9.179068036679144,-0.4837537197668799,0.004193568021889054,-0.001502048787655764,0.7229502689153257
516,-2.976535251927796,-8.971890857190406,-0.8153382148021658,0.003207834841584623,1.6640215712066702e-05,0.6979824797264885
517,-2.7336338991026103,-8.855212313228163,-0.8354842168631126,0.0039331172232776376,0.0016850003924998764,0.6743778674662725
518,-1.575219525359496,-8.909630598396488,-0.4356838698856904,0.006497576647306347,0.0017795242644575108,0.6548772256985912
519,-0.6020039418165641,-9.13213569601986,0.3859670725724069,0.010558054995990345,-0.0014502544151972752,0.6400849909441577
520,-1.4061832379228185,-9.128375573708183,-0.33553893300234694,0.011435170453151034,-0.0006131843733180238,0.6349730254538765
521,-1.3362031830048346,-9.094168574600735,0.21959710567557383,0.009616142595360797,0.0016246346848672606,0.6325995312416748
522,-0.4703281438584247,-9.1911700695706,0.4088667415380738,0.008020957556149785,0.001836434937989614,0.6351453978664771
523,0.008427639648582674,-9.203705217735015,-0.03937513225389057,0.007119222273080886,0.00041131504486855103,0.6431880698765217
524,-1.4453010907471795,-8.802492454061115,-0.6529289858555567,0.006238589745539632,-0.0003234752893361976,0.6560762883874142
525,-2.5096843337394885,-8.979983109720063,-0.3493880300223826,0.0061539403121574545,0.0005452599800863846,0.670591836089663
526,-2.0351639413001816,-8.771579903229709,-0.3730960481653747,0.006102162761926277,0.0007221290704075075,0.6789261562478099
527,-1.3344352214717767,-8.753706885646892,0.020483184693842055,0.006998007958539077,0.000246177075569099,0.6829207869027398
528,-1.3237253034523633,-8.872283945527041,0.4264597194259576,0.00866748674277119,-0.0001050410596217944,0.6828211572934394
529,-2.5765498652152363,-8.796918136155547,-0.05354124493806712,0.010285129818350563,0.0007248923640596457,0.6787496990158788
530,-3.0536705959195856,-9.049393492456716,-0.47785284505654596,0.010298965697604674,0.0015748764783641408,0.6779004934077015
531,-2.526991710995805,-8.862813663526374,-0.1046113330675487,0.00897768359517923,0.0010670464789678377,0.6736077204664626
532,-1.8221295465203475,-8.835304822455612,-0.11386934465363376,0.006879267343003386,0.00022918744694366792,0.6665806159965291
533,-1.5127947700944244,-8.899278292055088,-0.46146865624026673,0.004680679418463312,0.00042212655613513197,0.6580323402412339
534,-2.0006466819083633,-8.696891229483159,-0.48516785029076775,0.003217107443309769,0.002802056601294419,0.6498145984503895
535,-2.7158468094861146,-8.830310170952853,0.0005243677760259358,0.004061065451797922,0.0019386017036762964,0.6472544111722714
536,-2.8126884064431508,-8.546105996374031,-0.14057422720918664,0.005547836578111667,0.00039016336270048354,0.6481204067876565
537,-1.8382146271937159,-8.493915526513174,-0.4006221014960806,0.007652621191496655,-0.0008607577053182732,0.6507771490697709
538,-1.045288126811756,-8.653928697074432,-0.45228708330432643,0.00938498702741028,-0.00095531563810194,0.6534276022225267
539,-2.373422287094607,-8.690888591313644,-0.131003511926433,0.009396105898966972,0.0007042836217924628,0.654244783820631
540,-3.3536360463437376,-8.97490030436005,-0.5824727387953595,0.009404471798666538,0.0015553091952988645,0.6542489530377787
541,-2.4767559066013156,-8.730710691268342,-0.39737952192708226,0.0073736483193159105,0.0017486695351699197,0.6576595103710968
542,-1.4350768162597687,-8.521747365769814,-0.31690570965257076,0.006678082054462591,0.0012912581302680585,0.6619209871973323
543,-1.2983572296453254,-8.594076908102906,-0.37668092011204446,0.0072413182160299475,0.0009505070738898497,0.6646472739854261
544,-2.6527130238433627,-8.989837633740015,-0.2791551850110813,0.007256273667549856,0.0018003189672885337,0.6636234661006344
545,-3.042297491454542,-9.086990136762253,-0.3956148628526146,0.0072920024564578755,0.0026469353519334984,0.6593599638150012
546,-2.6652806182238287,-8.860786730375416,-0.21086212790652334,0.006629335708402961,0.001455891093259221,0.6564495072200445
547,-2.509905231911663,-8.626103753824452,-0.17353984628755198,0.006264279365675866,0.0011608347641335938,0.6543553530014536
548,-2.832120617989307,-8.5822527368594,-0.1528072533921614,0.006276139037270969,0.001754947251605883,0.6534209452161452
549,-3.4776859437859895,-8.833972513884957,0.20014773423790946,0.006271917014868081,0.0017987152280913,0.6541456040931298
550,-4.016370639742187,-8.857749213964563,-0.4124026829274658,0.006291235865112638,0.0026484559903427584,0.6524422262834705
551,-2.8844457493226137,-8.700712477045347,-0.15835783614551968,0.006281702691361595,0.0014557544293829008,0.6520951222253848
552,-2.001009624979511,-8.583605753751732,-0.16314385322904826,0.0058078305363056994,-0.00024298693051405816,0.6516147661393742
553,-2.1832903205952934,-8.583220255832671,-0.5334078459922764,0.005213265568206702,-0.001174223894970982,0.6515209882732581
554,-3.5141272440828937,-8.692055787291899,-0.8033376021332914,0.005252023588593498,-0.00027850650554891743,0.653317729171283
555,-3.5348088886597906,-8.786003656782063,-0.20061983264619118,0.006083571920641011,0.001419198586798385,0.6567452844303221
556,-3.051460829291907,-8.482743458679467,0.06601437546054986,0.006918612097336687,0.001753045219396903,0.6574369504689319
557,-3.38134705308389,-8.210127174140045,0.005392688528110048,0.0068484580910249376,0.0017515930554034011,0.6555615012211231
558,-4.208132500078994,-8.354808588704842,-0.14622301164693002,0.006282690320034136,0.001753699917196024,0.6523988756219249
559,-4.336639854210897,-9.165560174537902,-0.06542715213804909,0.006296689079879817,0.0016678984759576703,0.650087251151607
560,-3.4064468167293906,-8.775487765034553,-0.41064728400256384,0.006263542205686083,-3.102731555207832e-05,0.6526398384842012
561,-3.0903970962434837,-8.387832195167308,-0.3044911196907802,0.006933130351848816,-0.0003817237080852324,0.6517943947163927
562,-3.1566181778645515,-8.295331875938885,-0.27741027660233736,0.006870819419038006,8.31087255743686e-05,0.6496207018542481
563,-3.8506262275766114,-8.391932484494921,-0.2692756351810486,0.006311414930095301,0.001190955640594387,0.6470617423676885
564,-5.432483995857844,-8.365734985215255,0.037347339823369845,0.006343241943862599,0.0028091145205663337,0.6445906502395945
565,-4.053547367905685,-8.401660388637758,-0.2710830730313098,0.006348711923417059,0.002808073061364222,0.6437372754142698
566,-3.296583948218244,-8.13832503684544,-0.1120967344124645,0.006994592975769983,0.0014442748836507046,0.6449241668503474
567,-4.168423452068711,-8.331648464943116,-0.12168283751297106,0.008280106669127416,0.0001939201783009033,0.6442960107658968
568,-7.114243449537971,-8.753627613313338,-0.2582290415160703,0.008979776888900767,0.0005981172524976263,0.6414873355806758
569,-11.938523088598382,-8.651876229616017,-0.13128629457756857,0.007411088345414236,0.0038931933272129352,0.6365899802531658
570,-13.734459387438063,-8.059007877509696,0.0563964692316916,0.006807863215591951,0.0047100132001393,0.6015920558112534
571,-14.976122434604928,-8.121613450432877,-0.11640956731223784,0.009025633013319146,0.0013923008757228087,0.5359772588715626
572,-15.405460710682867,-8.419878623893656,-0.13293242408300202,0.008405374639261757,0.004500085680574393,0.4583772326275267
573,-14.99819861333484,-8.535972771417676,0.014337041023784082,0.005021043366919471,0.009725337010406926,0.3423541254283497
574,-13.82304150559414,-8.121659195754573,0.05098407375505627,0.002101007660359088,0.0053493431580726785,0.14532389343080335
575,-10.527926459169219,-8.462237444900875,-0.14425797979573843,-0.0002563438038265531,0.0026375760883163993,-0.01262187125512675
576,-9.370723232689834,-8.788577166693692,-0.3608784558462875,-0.0028376563184324684,0.0020049365289407867,-0.132499971010902
577,-8.548153476091255,-8.790117084009824,-0.2675982844655731,-0.004641201149421635,0.0019100832283164924,-0.23050993275706172
578,-8.283885180253094,-8.543433525958639,-0.10756615717217653,-0.005317245346734254,0.000817319510731783,-0.31036219462785153
579,-9.675079588879509,-8.383098495625804,-0.40608625982251767,-0.004999194653356649,-0.002467783938026521,-0.3708662800724721
580,-9.076754801585302,-9.091263420724122,-0.5588326562154601,-0.005454686526985151,-0.0016782912237843619,-0.4289109299198014
581,-8.999463178956045,-8.38922353048421,-0.20339262360534674,-0.007264603355285278,-0.0015494684295036705,-0.4842510682779373
582,-8.830190431495705,-8.174070559201173,-0.17817519327131254,-0.008494786334141424,-0.002068263094451552,-0.5421498839445473
583,-8.42624063479979,-8.362537413719009,-0.5228425074857351,-0.008669095009951005,-0.0017364838093165294,-0.6062810760719939
584,-7.7461866430094535,-7.8687400338330455,-0.7947163980373101,-0.008098186436887086,0.001351204473637355,-0.6787813481537155
585,-3.527131149323945,-8.384302304830513,-0.2624050754680455,-0.005983501436734267,-0.0004561596122395902,-0.7504809809888267
586,-1.6396805104082244,-8.350590880550644,-0.47336303858814954,-0.008039031550280358,-0.00015481050922675407,-0.7903169704446609
587,-0.5217993731802532,-8.426705150315213,-0.35764251508250955,-0.010308212903570417,0.001155792361113083,-0.8140079981735526
588,0.40343093061698354,-8.547113467707522,-0.013984225523589647,-0.011490352707133819,0.0011177601840162998,-0.8137601660840179
589,1.1099701993645863,-8.293760284405638,-0.16076479755900558,-0.011731049856903078,-0.0028627426508924156,-0.7709400366493473
590,-0.1698869220099163,-8.597957509541805,-0.2091100684278184,-0.010466663893265839,-0.0019487573021859691,-0.7060535277331004
591,-1.5642796213167793,-8.335883269595099,-0.4216917344636474,-0.008425203394860597,-0.0010636631158995782,-0.6587798573679198
592,-3.198631109759825,-8.447778842533676,-0.16550449367778264,-0.0075591187939789235,-0.0015604508947134486,-0.6160966039018754
593,-4.56498148715318,-8.851061626826802,0.10433086164914729,-0.007037913190386454,-0.002732556980526573,-0.5844378358958691
594,-4.823096502100566,-8.881932691881362,-0.5772732216154864,-0.004703437756175502,-0.0026404672625575066,-0.5796333576371147
595,-4.246415296340316,-8.459524393340248,-0.15260423949873914,-0.0054978338156751695,-8.121192893222588e-05,-0.582186683458481
596,-4.419572124981426,-8.236840931793873,-0.08208338685522641,-0.0049039568650839456,0.0004236632752066624,-0.5976029434674176
597,-4.797090097893996,-8.582760408175384,-0.2308081338642114,-0.004836084286289641,-0.0009909663341766974,-0.6214857554253828
598,-4.661877027870713,-9.051451366972467,-0.3571984389990137,-0.00600095250495513,-0.002568340495921891,-0.6489204473466317
599,-3.2683722380911076,-8.780875458028914,-0.1907046560655084,-0.008372765269635712,-0.0017579956814904537,-0.6745390539058793
600,-1.8499961948992971,-8.86495314414554,-0.4609911004115671,-0.0115530764470431,-0.0017552197606610675,-0.700166360087506
601,-1.87340161801712,-8.577695419131851,-0.7156996275517971,-0.01214232441633271,-0.0010928432208561103,-0.7156310423805609
602,-2.6352738635824107,-8.53622972221915,-0.3707751318726446,-0.01119024615365245,-0.0002581931032572224,-0.7214853925690892
603,-2.8870183922593746,-8.63872697044355,0.16961892431692113,-0.009782564227623618,8.620835994276242e-05,-0.7177393837172392
604,-1.2106423297839035,-8.407052649054775,-0.02732073427080754,-0.009001781812840172,-0.0007580153110503913,-0.7048998409933693
605,-0.6599334218643975,-8.643161215691666,-0.0012426796535133645,-0.00742585968867121,-0.0016093824149699932,-0.6912361833093887
606,-1.4471673588778817,-9.227338922726911,0.42069740519537757,-0.007159779595767888,-0.00110028682813588,-0.6775743348415577
607,-2.4696671905850813,-9.275492112825612,0.037310452032145114,-0.007231461678002172,0.00022785026001854666,-0.66437255159965
608,-2.9260102523782097,-8.94391431126379,-0.7017420730599458,-0.0073041924733041625,0.000706702320005719,-0.6523116839681624
609,-2.2504834607044595,-8.97322424680121,-0.4265802970235017,-0.00739080350500623,-0.0017310624655932675,-0.6425683640589036
610,-1.6935219625640334,-8.754269201911935,-0.10716538635558821,-0.007379863545897227,-0.00173314538399757,-0.6442751137095528
611,-2.4628922914879725,-8.904958292266203,-0.6707570018201521,-0.007999518503520623,-0.0017342702992945655,-0.6507104188831412
612,-3.1177758509150895,-9.083229285897149,-0.6547182415419267,-0.00922773963405378,-0.00034984944949870427,-0.657932401853587
613,-2.923319826549125,-9.074087088856977,-0.19903915266074867,-0.010364572255548722,0.0009736508728154267,-0.6637706664439638
614,-1.6817021615583823,-8.753138195556586,-0.34313331773746575,-0.010258627795283035,-0.000734470652850118,-0.6672610351864727
615,-1.9116050942968927,-8.439397918431272,-0.0771876788729133,-0.007734002336004398,-0.0024690942324109163,-0.6723764895954223
616,-1.865720018123211,-9.026467499142335,-0.1844652601134249,-0.007170809924616743,-0.0021658535027297737,-0.6774930676673923
617,-1.9865102399323786,-9.367859821882963,0.009260516829572019,-0.007589539670646649,-0.0013144345020815495,-0.6812311275696851
618,-1.7760749629113737,-9.260465736105548,0.16078715305043917,-0.008402259946811645,-0.00045772770713101515,-0.6835455872682422
619,-0.3261286056643818,-9.082982054796128,-0.5932109360457463,-0.009188893553833415,0.00033305254734446367,-0.6849185184177463
620,-0.7541905515584044,-9.272149374547945,-0.4478826248530476,-0.009241029562231145,-0.0005096393967530385,-0.6780940864504617
621,-1.4034956902052487,-8.884322781559558,-0.4184739237144882,-0.00994469906079925,-0.0013472587906441023,-0.6726208151774975
622,-1.665959638774279,-8.784257190986812,-0.5490749558997476,-0.009008167009586088,-0.0012853300286537399,-0.6679531463837235
623,-1.26890971970143,-8.977497305173868,-0.6560564599342535,-0.007241142212640038,-0.0009396945998331374,-0.6646580765562657
624,-0.24401219153359133,-8.965395852156353,-0.4524625072302054,-0.0072553862130062124,-0.001724089593124289,-0.6636445959781903
625,-0.6408111863228615,-9.061093836801446,-0.7448884341916634,-0.007279845326764726,-0.000866814286509033,-0.6585193765181778
626,-1.750713274894253,-9.151203770904779,-0.45345581211069674,-0.007304308488919365,-9.53820909790101e-06,-0.653393525465426
627,-2.0259290456349945,-9.047345838251758,-0.5041250873590162,-0.007320111500292921,-7.136293027651958e-05,-0.6510276508426012
628,-1.2926887744638027,-8.958689751989661,-0.5897286829361027,-0.007080750111691769,-0.0006807924835941217,-0.6517662958826487
629,-0.32261322116526764,-9.304257031814696,0.2605307845368971,-0.006353804637698514,-0.0006912211798978913,-0.6543872617691735
630,-1.3465951119608508,-9.334734977282775,0.1426217281074991,-0.008834199669889242,-0.0006709148031130678,-0.6586696720487473
631,-2.1740181522080184,-9.37080986787928,0.12069038365110693,-0.007375914981371201,-1.7391135728081914e-05,-0.6602370920915455
632,-1.9618505263420416,-9.186697723455797,-0.07797184424738102,-0.0071130168251892535,0.0003744096208640593,-0.6597116324746501
633,-0.8743327512811796,-9.001994454330347,-0.28610172847382526,-0.008560663908962861,-9.74722301110881e-05,-0.6580154596598049
634,0.22724110023356886,-9.29242788033687,-0.11154662249632327,-0.009329674533540363,-0.0017274985868856395,-0.6565718201067132
635,0.03725855121325176,-9.641047208042824,-0.6536250846113314,-0.00762501100655507,-0.0017507590650181757,-0.661683848399138
636,-1.1420928128039103,-9.256893668555715,-0.7267414148606062,-0.00790770232558826,0.0002615598303721727,-0.6614254201029343
637,-1.2703652644885886,-9.101126653503625,-0.42798479197333594,-0.007410987887782368,0.0009870931594662615,-0.6583379871891697
638,-0.32283634018704455,-9.13776062849471,-0.16850020292394852,-0.006500602097032145,-0.000355813897091373,-0.6535825112747108
639,0.3805294486831481,-8.750286269655707,-0.5012861203538429,-0.007366521961577687,-0.002741155898232662,-0.6479006103995725
640,-1.1499122500071037,-8.806949535253187,0.04648960250031747,-0.00733883721163364,-0.001040389562474734,-0.6495998189920844
641,-1.7074815077952485,-9.360443764848107,-0.3480193788522136,-0.007970325993996077,-3.150883793530976e-06,-0.651976777533173
642,-1.061129932844291,-9.456068071541527,-0.4084772868817095,-0.00745615396664458,-0.0009841965205305118,-0.654539058807821
643,-0.01674857786469965,-9.132283968897486,-0.15722616548173296,-0.006507898506760118,-0.0028207656028196868,-0.6561281694504011
644,-0.058904574978389815,-9.052465676811874,-0.4016134125743595,-0.0073196367419642,-0.0028115556501048006,-0.6553096040388455
645,-1.3474191289668198,-9.145931122221604,-0.4716917635644953,-0.007319636741964199,-0.0028115556501048,-0.6553096040388454
646,-1.3872801700446904,-8.938505923696978,-0.5068921661564221,-0.006661130113629208,-0.0021486993021876304,-0.6546325397885109
647,-0.48611718905877666,-8.845017511164576,-0.44522673227372667,-0.006257690577932604,-0.0013024452776867895,-0.6555988139651103
648,0.5430566787055745,-9.001268452879653,-0.3747557859236406,-0.0067205085200441736,-0.000690161189459157,-0.6567016628863658
649,0.5137006824484317,-9.3443233324836,-0.46056736275886434,-0.008350698251773052,-0.000641336319665674,-0.6541794708164291
650,-1.4981904632528007,-9.359015487070572,-0.19766541032655682,-0.008353277447313475,0.00021177315014081575,-0.6524677506577159
651,-1.143173360944553,-9.037143263885305,-0.2867119008521931,-0.008384118951840639,-0.00093571838033911,-0.6494273317638162
652,0.19050768584535382,-9.155773564162333,0.12127983099052267,-0.00795122776505364,-0.001276912089651657,-0.6478354571210905
653,1.1755150136552843,-9.42463220587856,0.49604575138951157,-0.007347412158617961,-0.0009153940418574564,-0.6480725919461499
654,0.5433359475313205,-8.930527444778749,-0.48609124116293356,-0.007349924183545145,-0.001710157238081442,-0.6489019158348681
655,-0.5638534900503763,-9.34215087191777,-0.4851461005825428,-0.007341558283845579,-0.0008591316645750404,-0.6488977466177204
656,-1.015009510422604,-9.188563547209185,-0.3294338855470603,-0.0073505903633825555,-0.0013407591904905716,-0.648230906949868
657,-0.4197378568259269,-8.840448731205246,-0.022171869425315183,-0.007365803995842987,-0.001735822258314246,-0.6464685526341674
658,1.2400105586131205,-8.67416752059744,0.10782706105739406,-0.007379942965446575,-0.00197469152754945,-0.644633681180658
659,3.7344650951804765,-9.052477881504943,-0.44371036022616395,-0.0074174911553919354,-0.00285389500992535,-0.6444138163388847
660,7.890032749700834,-9.404559961496421,-0.7417775331043157,-0.008313909752187328,-0.004539107643965063,-0.6375984652094281
661,9.930053992583954,-9.366695072238503,-0.6513663020769329,-0.008734686839487292,-0.010869361219818595,-0.6100922952555589
662,11.664282228273304,-9.140507079169177,-0.6081277545801935,-0.006873265134266143,-0.010778408029305341,-0.5531554483025805
663,12.914010094499835,-8.973187396769555,-0.5696008250647294,-0.003742621652042864,-0.004846426017541024,-0.4539860071303673
664,12.243090883335595,-9.136139193627342,-0.21755469114448925,-0.0021372340707694576,-0.0014157753423735108,-0.2996804212482088
665,9.772355809114408,-9.35559660929859,-0.491117685969006,0.0009240773153753779,-0.0020986633801328607,-0.12638167241448142
666,6.344199084725325,-9.565898645465278,-0.5031950971935166,0.002189509714730191,-0.002125731892756899,0.022215470463957852
667,1.9390627684696553,-9.708728516429321,-0.5469425006215811,0.0021299887437359784,-0.002426525360360649,0.15302142898038196
668,-2.323274950260534,-9.493233923886388,-0.6680779663986244,0.0019662565256953314,-0.002683207928507952,0.25140760934362677
669,-4.641805276826067,-8.560103003272625,-0.7432230550009796,0.0033193539011857247,-0.0018810069338308576,0.2900987695139783
670,-7.4901006066952265,-9.211549048211774,-0.5621887744590335,0.0025050055422320048,-0.003581845367486663,0.28411029309989944
671,-8.067864841574014,-9.556372855532006,-0.377786092011551,0.0014945086301608027,0.0032962100787038845,0.2201569492040191
672,-6.813479856074267,-9.47689724762617,0.11128466731958755,0.0018559839798595313,0.00394521337894447,0.11182703330668557
673,-4.502291325204078,-9.208102515732147,0.5075826861462064,0.0027719843957145548,0.0003229145509709788,-0.01583833750525144
674,-2.1849832186607983,-9.226687222506822,-0.011245853435326027,0.0017944001917014145,0.005128479134109753,-0.1286232100232346
675,0.31605286970793484,-9.444257556922544,-0.19406656911661693,-0.0018198423848958232,0.0042106053669163455,-0.21827873476037163
676,2.097668448339249,-9.257567102386137,-0.43883482772823995,-0.003742053928022372,0.0033232185979444433,-0.2666287196802226
677,3.536977091649308,-9.141339416063023,-0.48914709883552715,-0.005295517963462499,0.005629061495355889,-0.2816133641249465
678,4.483462260329279,-9.206635960368263,-0.44328933395474557,-0.006328225215014732,0.007664833883688444,-0.2687412423342875
679,4.45889817767118,-9.31211035591107,-0.6192031269476372,-0.005726824397051651,0.0019938094833207897,-0.23318427022947402
680,3.7254212479091957,-9.206089995700493,-0.33230481440590426,-0.0035433577392751693,0.004588033580510933,-0.17852741233778896
681,2.620416267247064,-9.349598921357313,-0.2894567907437231,-0.0007261156515073728,0.003191456715885893,-0.1272133890980814
682,1.4245551845905062,-9.431031698572323,-0.18066097293828215,0.0014353041876746513,0.003372963699897681,-0.08045085263655144
683,0.19130615552853975,-9.386221959769903,-0.062442341840464766,0.0019498680868394794,0.0043001990378050085,-0.044055518440358904
684,-1.1590968769937635,-9.32279796721189,-0.2202377213388575,0.00015907645758635202,0.001080570253676404,-0.02687109553874756
685,-2.0998712210032964,-9.349804892012651,-0.04875494916465808,-0.0006163304677095291,0.0027835917398895006,-0.033696265994802806
686,-2.3166988368796524,-9.417562169056104,-0.1989829742795047,-0.00128559007760683,0.005794124219616444,-0.05513779116950515
687,-2.200415900584483,-9.44587645587405,-0.2575412840356532,-0.0019179724147700048,0.004217308981334506,-0.08932887314542035
688,-1.847376174687529,-9.4288408071015,-0.2176072935266457,-0.002282285107042048,0.0010558929477944255,-0.13141094561131705
689,-1.1581664969436942,-9.412877142438868,-0.3408370638805798,-0.001991052234764287,0.0052361622135591035,-0.17399759240225857
690,0.11303319181722665,-9.418223909242169,-0.2873999399303981,-0.002536346796724805,0.00860060815894051,-0.21410405552083323
691,0.7886061672726603,-9.282436911949334,-0.12297700045506053,-0.0025362913324560848,0.00866159879797986,-0.24293538009776608
692,1.1694884028751078,-9.2238138499008,-0.03744921338369046,-0.002854395809584443,0.010040040939030766,-0.2599807373231774
693,1.4996893984744348,-9.300128035042121,-0.08065000263751952,-0.0036359012793995725,0.011792850025763434,-0.26581371590094965
694,1.9703994281555175,-9.440500955397397,-0.19785106970887553,-0.004497789711887246,0.009344722801543415,-0.2621134467574745
695,1.801098523712141,-9.098485700739003,-0.1919794615794996,-0.0045824312899644705,0.010214257156011375,-0.2475978951404717
696,1.2748616048905999,-9.389103013181769,-0.3981553624305715,-0.002717721749914359,0.011063336448089309,-0.233071515366336
697,0.6353388608051759,-9.489373346202058,-0.350391343571775,-0.0016187746482941713,0.010123244533920148,-0.22080717811633607
698,-0.01596477850378264,-9.341287283736882,-0.09659126382220098,-0.0014667579541830984,0.008285285400443586,-0.21128032995754253
699,-0.652902551937045,-9.413686432934156,-0.049961141399287375,-0.0006994091738449941,0.008263256915111981,-0.2040677905820611
700,-0.570175973629486,-9.3737137411752,-0.2575968783389742,-0.0006421147743664492,0.007399729919596214,-0.21431566286676723
701,-0.8320723005304194,-9.278467668956141,-0.21613260289872005,-0.0011675363371597297,0.008515846721066554,-0.23184604298811826
702,-0.6310361313712642,-9.358382889031228,-0.23027983862496348,-0.002293535576508858,0.009757426067426892,-0.2532760650252488
703,-9.776009688886034e-05,-9.424517151937017,-0.3400817361884842,-0.00403940420459414,0.010364893442969585,-0.27680183714582973
704,0.4183443420627315,-9.01963895407391,-0.3973954010098078,-0.006325655390598342,0.010359711636656594,-0.3014381018597551
705,0.39910560292143865,-9.25667371545911,-0.3655593032981448,-0.006199809907927492,0.01033575122973546,-0.3210713318786314
706,0.8658730959088451,-9.200447831337621,-0.19114711710762164,-0.004815408557088589,0.0116282330101618,-0.3327458826087508
707,1.2563078013320577,-9.279615516949553,-0.40367056600316475,-0.0031125659079128763,0.01151911037726228,-0.33764201023588614
708,1.3820800183990478,-9.50033481055275,-0.7241584426557228,-0.0019112570557092926,0.010272776153941614,-0.3377903737673419
709,1.3207700294817009,-9.560245350359125,-0.32579911473040657,-0.0019428817549129358,0.010275045879615688,-0.3361042157747169
710,1.005735676042926,-9.258251373630086,-0.5666713050256541,-0.0027842684231655698,0.010284592222381705,-0.33525575257006984
711,0.9686667468657291,-9.401708236297239,-0.4629774560656412,-0.0042780920567699245,0.010301541091405185,-0.3337493650372398
712,0.7213151954466105,-9.464078673276054,-0.48360616018749736,-0.00550845122353907,0.010313445427536476,-0.3342878982311219
713,0.3363049819369124,-9.365840340310196,-0.5884346872967907,-0.006095744308320139,0.009847961919283537,-0.3380253241662229
714,0.2931139300503975,-9.351256715027999,-0.3823176541585175,-0.006026347236235721,0.008238783523374692,-0.345026144489897
715,0.5653420888996905,-9.473693654148043,-0.3705115547973651,-0.00424186808704005,0.010758982302992734,-0.35866101205119655
716,0.32129359926779516,-9.407070558861754,-0.04190054556779059,-0.0037537227687442034,0.011312654354535155,-0.37495613979705056
717,0.6304445869592502,-9.3570596638556,-0.10670448752699441,-0.004104995262750764,0.01130063830214765,-0.3884543942927663
718,1.2266646745947412,-9.253255804999434,-0.2739666386175573,-0.0048759608209359845,0.011529976957319785,-0.3982342532435385
719,0.902904795267311,-8.852811583766254,0.43631190759682736,-0.00562854444030574,0.01237874593144923,-0.40689041436702145
720,1.3420290161673187,-9.281736977786336,0.13068557524741617,-0.005532638323209986,0.013213104246137123,-0.4205434475187304
721,1.5930006691413716,-9.161077849373793,-0.15785192630980754,-0.005496442595242651,0.011422149405120192,-0.42893009291311834
722,1.370753028776942,-9.486943062888963,-0.5213911027339193,-0.00502871383125462,0.011529095929448422,-0.433523923973298
723,1.068036024594242,-9.955526446873678,-0.8620418708840759,-0.004605111969832393,0.013377213116047405,-0.43747011048621204
724,1.5399078601652676,-9.33324263215931,-0.9232317046046453,-0.0053923464425810535,0.013357250899416947,-0.44509944621361275
725,0.8025831825752214,-9.032060987931791,0.04584362442802287,-0.006203798881389453,0.012508479498469883,-0.4502303785852177
726,0.8018649258759192,-8.987414935261892,-0.22768975953200227,-0.0063418191937009765,0.013623935267248876,-0.45666600823608905
727,0.8384967393249158,-9.116368315608522,-0.30830754943824074,-0.005430095840712768,0.013977357579344242,-0.46215056406692
728,0.8777025963085874,-9.326393749953407,-0.06911057665195422,-0.0046401750758876155,0.013806950504279027,-0.4666467964379132
729,1.346295438629437,-9.502975151594491,-0.32833387520753005,-0.006279914458083734,0.015446495462048071,-0.47199307430132265
730,0.9975932916935052,-9.210254320909259,0.1232014849119739,-0.008706708900675474,0.013750417689265425,-0.4873801081437663
731,1.9242870278400346,-9.509832923422707,0.36026483335716736,-0.008571792375024671,0.014006309619012948,-0.4968161219560009
732,1.753065617811996,-9.6180498829239,0.27075382127018105,-0.008552682333145736,0.014849247796281695,-0.5040496349464821
733,0.7866414346587409,-9.334974007675449,0.0640870550842251,-0.008646949163326166,0.015460532801193015,-0.5127275214958992
734,1.3218457690047827,-8.925402260590081,0.19647241053092293,-0.006941428418658149,0.01542765130530197,-0.5261608589584311
735,1.7167208898798172,-9.456567493735161,0.5470927649100462,-0.0077554600530069726,0.015431989374161247,-0.5295800711713233
736,2.245046512456593,-9.504865083952064,-0.13622628482865595,-0.00792522735134185,0.015429772491748213,-0.5329954978609964
737,2.188677134413127,-9.267880419768932,-0.3984805054257977,-0.008296912279404123,0.01675397692864922,-0.5408491585884799
738,1.5514446244179625,-9.000949293298854,-0.05989337421540052,-0.009277408307160362,0.01861621892890717,-0.5507198343533484
739,0.9173514692073174,-8.99483820960281,0.0768437412381826,-0.010854665529669892,0.0186272173803603,-0.5551000531885084
740,1.187655754142481,-8.477274162914851,-0.3725074900476206,-0.009121862070482243,0.018598740642514933,-0.5644797522866201
741,1.4861038608374997,-9.14868014287423,0.03791782721403719,-0.008676862411675864,0.01858336643213844,-0.5738670181720231
742,2.13792825217565,-9.565741649926034,-0.16534219280692677,-0.008625044089958043,0.019459770200060927,-0.5805902103849969
743,2.6741056769934004,-9.362742889922155,-0.7937988890405436,-0.008586941420953847,0.02069813082872516,-0.5846217801873889
744,2.0488967914519614,-9.024201971424672,-0.39471533911268725,-0.008595755991608387,0.020710482451468625,-0.5882672711183895
745,2.2311838448157104,-9.608580770876321,-0.014318336347267722,-0.010161515199662626,0.021560573707835713,-0.6036376791501119
746,2.0331817784137742,-9.318432666045421,0.6673058229815667,-0.011142907412075244,0.02110258979965783,-0.6117888849942741
747,1.9336867549314316,-8.89190736339641,0.6041113916075517,-0.011930356662345754,0.020691320169023586,-0.6199856939931727
748,2.0163297048305453,-8.693743032126,0.09376866024789211,-0.012257900219876421,0.02091335256965499,-0.6288535134121976
749,2.066922418504881,-8.816129011366035,0.43702454520544404,-0.011396529715751086,0.021766421112627273,-0.6339029727846494
750,2.580596753577571,-9.853850978133085,-1.1527334797676418,-0.01136885795724287,0.023466389341235808,-0.6356013840010035
751,2.7565036166058667,-9.535151014572769,-0.12605600007492168,-0.012581948913861496,0.023205782122277644,-0.647155297076222
752,2.7460902541797205,-9.353263844349168,0.17747144677235566,-0.012470821611911986,0.021458966099008617,-0.6576940257760684
753,2.5902258843096835,-9.352963954833955,-0.418180839785655,-0.011661410798698625,0.019800072950326777,-0.6654409555638918
754,2.254176190585177,-8.475750478185738,0.34045796176225696,-0.013245281914994588,0.020625362534183685,-0.6755986915944234
755,2.0593839567795875,-8.354713907970405,-0.6011897196104746,-0.014057519252102194,0.0197765991190428,-0.6807296285778787
756,2.3459845294712394,-8.47873556379553,-0.9708679767991228,-0.012945464356370177,0.02087245965279289,-0.6825633859505732
757,1.7479761886692096,-8.53701687607309,-0.8580425502016382,-0.012504803102120779,0.021238017379495093,-0.6922450298308488
758,0.7650862287622073,-8.624079066520295,-0.33645003266184387,-0.013249620244423083,0.021059479838543834,-0.706755692192862
759,1.3742628032874218,-9.140906187116665,0.5263028413568158,-0.014022442923396014,0.022721051070125158,-0.7119602678306167
760,2.612756635508477,-9.230476217719154,2.0472538265164175,-0.013965153660048517,0.021857525052505104,-0.7222073388244098
761,3.796301671278206,-8.494254900157692,0.538414796764163,-0.013346278085605514,0.019694586459694276,-0.7219853403161455
762,3.9723279511943206,-8.637147177182955,-0.06641170608250346,-0.013380902973988822,0.019780898050101192,-0.7207752727049035
763,2.951515045521906,-9.358348181137568,0.5016604956372853,-0.014413328847490487,0.02120932003295972,-0.7227648445174665
764,1.2441094162666149,-8.766744138658003,-0.3836224389987315,-0.016028721803071633,0.019571975100030645,-0.7277940284683344
765,2.936156523743769,-8.6685872741876,0.09217604335500501,-0.015187005418778465,0.021268403366929377,-0.7260740248479535
766,3.561681361249432,-8.099677403326154,0.15326418424593144,-0.014366498313942485,0.021662117434579818,-0.7230518856897304
767,3.352794021830964,-7.893368269480083,0.24485705527052748,-0.014425853461101073,0.022548161243212732,-0.7165516885657659
768,2.7458975990706413,-8.219876728727707,0.1900487797790914,-0.015285047372012377,0.023360649085562357,-0.7116972620984803
769,2.368160247653667,-8.703935737438568,-0.6626982514885669,-0.01605085801450951,0.02165749954461444,-0.7192480261537172
770,2.5956583379995144,-9.124750525467967,-0.5413445321547558,-0.014406709387057404,0.019939723441728778,-0.7175389943198492
771,3.555514399723835,-8.809138264833262,-0.9274324751017703,-0.014653812657775841,0.020194005871220666,-0.7171382177497084
772,3.8851436972780444,-8.560902705627813,-0.9527273939581113,-0.015498099994050506,0.021935270412981878,-0.7131787244662464
773,3.4704634779177512,-8.537677933034496,-0.48920145941965976,-0.015897529386844973,0.02382165688510952,-0.7093317540311251
774,3.235152999565106,-8.362404163301111,-0.047174507006373864,-0.015030056289662403,0.023817368883268224,-0.7161305933969155
775,3.6752391574224443,-7.544419061563833,-1.4929571359259608,-0.01498886024037368,0.024662143745770103,-0.72124827571355
776,4.667147982830704,-8.50683470577328,-1.0810376180632328,-0.01625543258528124,0.025526111866274938,-0.7218055856443868
777,4.289484445059171,-8.708011593303771,-1.0133377003033148,-0.016627825745223153,0.026819493582182892,-0.7213865323124179
778,2.7110440052023432,-8.230608818219409,-1.5024203436419574,-0.016460138414685768,0.02717361355722373,-0.7198067049576712
779,1.890092147924839,-9.280182571551048,-1.1212340232217275,-0.018190957595119826,0.023839492369190553,-0.7141053278900207
780,4.586882407056279,-8.000044846137865,-0.23412831262984926,-0.018950279161661795,0.02383341389023643,-0.7260598909379936
781,4.822334391885181,-8.816661233523392,-0.9524079277767469,-0.01851437765310976,0.0244808704826876,-0.7243168263657196
782,4.319377899120458,-9.000973719696304,-0.9563505055758068,-0.01769467439785858,0.023577223453460257,-0.7231618283427033
783,4.122553608047557,-8.267594607517033,-0.31863579739688186,-0.017100510553713547,0.021914795971372032,-0.7223130139327374
784,4.704819142897058,-8.365407656499293,-1.0756534620731908,-0.01719434703969279,0.02278137069121375,-0.709748814842988
785,4.138719243664367,-8.42327406963959,-0.02640810356507428,-0.018819519524376833,0.023642114839536845,-0.7157288939353857
786,3.602335968294386,-8.430629047705366,-0.29020928282639236,-0.01922222971743289,0.02124753130991464,-0.7184627087141262
787,3.924011702527843,-8.413138562613065,-0.6821990861173098,-0.018369171445264797,0.020013858884653197,-0.719733385534855
788,4.643337198085955,-8.44461250531124,-0.8963148266992136,-0.016910561230244658,0.02062686392699977,-0.7196793054585031
789,4.208627024134585,-8.63388482885844,-1.344167084141675,-0.016110689938728693,0.02063208537536958,-0.717092742236673
790,3.546814397673935,-8.476219653852143,-0.5610831075623979,-0.016966372804625138,0.021497631177198183,-0.7128258099197557
791,3.4153120859409656,-8.244345961365429,0.8564854966472816,-0.017767514796229296,0.02105231997614983,-0.7189717813515488
792,3.5484138665279135,-8.110269556320464,0.6817467542071836,-0.01815872879663801,0.020636602487440744,-0.7222496977114095
793,3.995205880001413,-8.185895975314814,-0.5340310845892176,-0.01816865948899542,0.020861734726677003,-0.7203575797106287
794,5.041700507995667,-8.515441441941288,0.11837232775170482,-0.01817080769077487,0.02167499720721284,-0.7202564681856167
795,4.409707927204029,-7.7800476209080465,-0.5043049485316558,-0.01908654000168384,0.0191400428330255,-0.7117385405374159
796,4.075360428333402,-7.757940301324363,-0.3483530751722418,-0.018633421607723095,0.019170429720755132,-0.714245095935474
797,4.554745313633695,-7.722801643053975,-0.7797165535300989,-0.01778044325968032,0.018703850922040337,-0.7176004447572053
798,5.090319617829159,-7.665742733517044,-1.3098720795915049,-0.017383813713519023,0.01766185116235594,-0.7186796919788148
799,3.8494569184069554,-8.180731488458978,0.10556823551323273,-0.018200822355193966,0.018520166544250725,-0.7203239047705322
800,4.319363121933158,-7.929235083245949,-1.2977434394576413,-0.019055728178096053,0.019384905275227623,-0.7160569717565225
801,5.248985295962239,-7.657770030788843,-1.3560899906893897,-0.01927721143954131,0.01959527176471778,-0.7124383738536926
802,5.05579963559501,-7.552322743716228,-0.11005286827690608,-0.019264286386886598,0.019157810511543114,-0.7151228350640384
803,4.171307237180525,-7.78993352730203,1.2665259813407168,-0.019231413625411413,0.018520609597523503,-0.721220251712847
804,4.788300708190876,-8.515409430111085,0.6050750749357927,-0.01924493670255445,0.018530060808661267,-0.7203752438136407
805,5.931081813183974,-7.44964196509534,-0.40248356071162955,-0.020072487491552923,0.019389591265731497,-0.720375986217171
806,5.675697843733628,-7.262599884928248,-0.7083951070918051,-0.020291965251325435,0.020896035289912105,-0.7151828413216461
807,4.686012095597129,-7.587925660918506,-0.6812815648706088,-0.021136438372812927,0.021305519699772374,-0.71574894523823
808,3.762989325771504,-8.012324461348653,-0.3874888602955418,-0.021916035405694496,0.020234567277332055,-0.7214497412063995
809,3.8434842742961637,-8.073241051851936,0.3542137018821027,-0.020282384689204146,0.018546358924724143,-0.7214559227811209
810,5.002137339080832,-7.934613213824312,0.12325243827786253,-0.021096879361116812,0.020255880504008738,-0.7223066766955945
811,5.9356101268841845,-7.861525894479424,-0.6255341707223644,-0.021313844467382208,0.021966663426637924,-0.7173239890232923
812,5.915153321076948,-8.242889393144749,-0.754162316436787,-0.021753750100087052,0.022378494734724315,-0.7144029862385527
813,5.5226793866731345,-8.532228396390487,-0.45302340601836927,-0.022152153590160165,0.021088089935446096,-0.7172503246552334
814,6.486972748638146,-7.36604063839682,-1.0819629767546617,-0.02129381948294259,0.018536420928329873,-0.7257099556286091
815,4.771358185712327,-7.518725392341503,-0.19833428759388094,-0.021304764578182665,0.01853850482463012,-0.724002404687043
816,5.163001783324835,-7.67495003110643,-0.5528354220368211,-0.021951291639611153,0.01919369780354622,-0.7210016880869381
817,5.386467331810287,-7.403164190503778,-0.37971575711799516,-0.02196434048959352,0.0196181865469698,-0.7162847992022017
818,4.815567753954304,-7.012938933878581,-0.03246703144114249,-0.021360257591650004,0.019395370222878884,-0.7140452710269238
819,4.312660301766969,-7.480304231408289,-1.7379297336007353,-0.02131423275711582,0.018533982968239732,-0.7225349807659376
820,4.929742859724101,-7.978689624018906,-0.32074043862309126,-0.021311666553011227,0.01768007539128358,-0.7242459035484929
821,5.276228426749462,-7.2567106792564555,-1.130446734880656,-0.021315185444259265,0.017473545553231114,-0.7240151092028262
822,5.27965725203193,-7.428766670722677,-1.442327605064643,-0.021345783992050137,0.016614793605569757,-0.7205691151308657
823,5.222867510264143,-8.157998302325359,-0.8145047176060605,-0.021593589608408258,0.015574943237568657,-0.7170116436321093
824,5.7152399655473065,-6.895379900900212,-0.8743572064935962,-0.02238812242764986,0.01643018056019402,-0.72043791844427
825,6.547796401886975,-7.496291547658149,-0.5076912811151758,-0.021511009689663116,0.017266450539131714,-0.7255506891402248
826,6.427527249326825,-7.532837593110292,-1.2077803404334138,-0.021311967130598807,0.01682799771987534,-0.7255076060569001
827,6.498577153047895,-7.3677978368717625,-1.6995091757346776,-0.021757040496478454,0.016847079578116115,-0.7220745139094431
828,6.526540756566684,-6.994284620640936,-1.3516872131593434,-0.022188735333240804,0.017490092520996973,-0.7173897197329444
829,5.028174490028657,-6.083928158886982,-0.13673720511948806,-0.021379204050530363,0.017480771530851397,-0.7140351489638131
830,5.39371053371322,-7.344670161802336,-0.3279272750462842,-0.02133832986197733,0.01662037086873401,-0.721721294190714
831,4.681675575213033,-7.212077821116901,0.2538432424311472,-0.02196629959131048,0.015773480706623585,-0.723606480810551
832,4.6691124371745865,-6.7692510274859625,0.2947953606528604,-0.02239069505059721,0.01578902362598551,-0.7218831979661696
833,5.600031767288019,-6.7934083327499755,-0.519565546443537,-0.02240840373379458,0.01664501368135666,-0.7178111172690219
834,6.282068153114689,-7.769211203910397,-1.5604379255336978,-0.022446466696717782,0.01749479485969297,-0.7118875834898141
835,5.0642559654708545,-6.727165276485055,-0.37279748303847937,-0.024093835824223996,0.016654528342309727,-0.717023427482097
836,6.081003977882004,-7.102912582770234,0.20527648338514481,-0.024479263969625655,0.015801423132734332,-0.7221512517912828
837,6.454181585049531,-7.329173578601444,-0.3392020960093395,-0.026149005305729972,0.017114236182440044,-0.7229686877814442
838,5.878858972173264,-7.045975377039074,-1.0923699656027503,-0.028219008233377363,0.01946204349407211,-0.7191209159142224
839,6.458744855141899,-7.020988838431585,0.19518931571877762,-0.026598859494111365,0.01860034041910377,-0.7140123256299377
840,5.981624124437678,-6.146767832331345,-0.2450828449576154,-0.02744862505349956,0.01775806308121382,-0.7131672342662806
841,6.109066894196179,-7.0420382533915,-0.6179613606683737,-0.026998452936042756,0.0175389782275895,-0.7174611763939833
842,6.917649331794324,-7.505101007761855,-1.1262615767335322,-0.026125369480475537,0.018812532489428026,-0.7212749911710329
843,7.870739969927538,-6.960407427170209,-1.5901553259818284,-0.025905617213354624,0.020283898704891883,-0.7221079572979499
844,7.843062847325891,-6.379569476289613,-1.4669381411634745,-0.027602339672831537,0.01860385450735328,-0.7204009429930546
845,6.762807644542301,-7.002397283349721,-1.2598038125624305,-0.028490400225232054,0.017768868361774503,-0.7135814265612097
846,6.19445856564818,-6.323415376084542,-0.4452206678159548,-0.028682628620269268,0.01820052717961977,-0.7151100480428818
847,6.544568570565062,-6.147224336803809,0.3653440483658604,-0.027395444211900884,0.01689091691440243,-0.7210945547056937
848,7.379288260562873,-6.647717898321165,0.42466603929461105,-0.025092516069934276,0.01474872589427003,-0.725320912581337
849,7.452333033461066,-6.433282529530927,-1.139492837103423,-0.023443741743980583,0.016434332422606706,-0.7193275659432834
850,6.775129415687561,-5.579656955846741,-1.2661661837366187,-0.02265449108412585,0.015582094135743692,-0.7133515971806496
851,7.015344273844406,-5.745581711968962,-0.47412903953888336,-0.023739824966688007,0.014746702490068415,-0.7093136630935415
852,7.715619554343555,-6.01387311982096,-0.45304388951087166,-0.023759832694295466,0.01389884302425614,-0.706332091166957
853,8.034343633637715,-6.105440895477975,-1.3012450869918095,-0.02233101762443728,0.013251812778266727,-0.7022598818895025
854,6.7598439690681635,-6.356623497890893,-1.5708059401187724,-0.02155293676279899,0.013253763525607858,-0.6937133350072747
855,7.862704690342774,-5.8374440583700435,-0.8012835233815666,-0.022465453709784075,0.013276852749585583,-0.6817677939097452
856,8.26855796416645,-6.065078723120786,-0.8036122593995947,-0.020888797311879002,0.013279062890747928,-0.6659582614461467
857,7.729975502329307,-6.202985233853017,-0.3536810696082897,-0.02011172227325145,0.0141364481511435,-0.656153989245803
858,6.936717565456063,-5.937643880768759,0.2294160360839264,-0.020331233992857176,0.014561461204147037,-0.653377807921135
859,7.500671805962827,-5.468968612455278,-0.8849421185587514,-0.018717407948933458,0.011147330187820152,-0.649962292485665
860,8.311103692289786,-6.349746308507067,-0.74123652729026,-0.019624454916363995,0.011169377952595764,-0.63887012621346
861,8.0384887393426,-6.032001732420465,-0.33814004888557403,-0.021153693085730015,0.010556476222512677,-0.6297082588401317
862,8.171753072239945,-5.861050229055561,-0.6673041517944794,-0.02163293301241295,0.010573805055419222,-0.6198928126101797
863,8.525844434524112,-5.971389612642654,-1.397047194482384,-0.021260936398026092,0.011644397506381937,-0.6111399144096964
864,7.257056161583265,-5.298437050856598,-0.8828455776243987,-0.0220912138220453,0.013356168526595047,-0.6094297428462575
865,7.896744238031252,-5.172376747009862,0.0372373742863345,-0.020446272440989496,0.011639183522949195,-0.6077207024857818
866,7.915214618889999,-5.45747446055179,0.2987542566543974,-0.0200884781397999,0.011220191705592093,-0.5989707033106666
867,7.847604162848258,-5.680488983358744,-0.020513612782000895,-0.02138890118391165,0.01124180508781997,-0.5917216905257986
868,7.909997526093664,-5.676342131411359,-0.5339310068971934,-0.023316264724213748,0.011269543967239545,-0.5846955517435178
869,7.9994576631007,-5.58818155182568,-0.544279240923235,-0.023431165111644562,0.011291420477860437,-0.5667698726662016
870,7.313053599762316,-5.5122936104148135,-0.8100460098249406,-0.023464034417376108,0.011297678644016495,-0.56164191235891
871,7.471661457121554,-5.490094857271811,-0.7791193774005123,-0.022850046940891773,0.01129365436773798,-0.5597141868939484
872,7.690439445448243,-5.751026493737143,-0.21073570057123542,-0.022487370786666194,0.010874558443316024,-0.551618341363778
873,7.676532882305654,-5.940442421304124,0.19236223517060777,-0.02236068422141215,0.010671904260834874,-0.5392280611417567
874,7.635169593151863,-5.110661229925461,-1.2307502752249815,-0.021529135889364694,0.012369609353182143,-0.5358005058827177
875,7.865671119013033,-5.251300866056812,-1.1468860520246031,-0.020769723050793228,0.012377946628427174,-0.5238565236391405
876,7.751666708538116,-5.524642067360835,-0.22714195866404205,-0.021261955011931587,0.011120489779647271,-0.513831519939836
877,7.670826755087493,-5.693373943890222,0.13084120675594654,-0.021748660205261908,0.009856766911288853,-0.505301537908141
878,7.739251022378105,-5.710853437995828,-0.24853647029822196,-0.021586692135068287,0.009010080102599028,-0.4995281758170107
879,7.80514370393705,-5.723943361616785,-0.29301100517640977,-0.020759141346069817,0.008150549645528799,-0.4995274334134806
880,7.620025603182457,-5.181149174170228,0.031305673361171335,-0.019132459082642106,0.009842403679048421,-0.4901397753526094
881,8.097845608628555,-5.2090514227089955,-0.20139573360891896,-0.017520336417455467,0.00899179469763476,-0.4820206420807177
882,8.380140590774108,-5.303652301918625,-0.4631966791591905,-0.016306560135767187,0.008553947885168474,-0.4760315208345617
883,8.090428925833134,-5.176067647668447,-0.5112181662002344,-0.01592674979574029,0.009199568079054893,-0.46838095590392703
884,7.34925650041463,-4.760515905669438,-0.3978702106588042,-0.01687756687186922,0.009229949473239614,-0.4504601884472888
885,8.058278778542174,-5.076118930119209,-0.47499820104350954,-0.017760344040342955,0.008397251716748676,-0.4444598769618716
886,8.308515267210435,-5.312436227642818,-0.25220654060041026,-0.018002253550201623,0.007552558756659233,-0.44104032654609215
887,8.170820095692601,-4.981067560399808,-0.24346088017313136,-0.01723056269662769,0.007126139284332644,-0.432541097214845
888,7.9799366044840365,-4.627909341552194,-0.4782637026799028,-0.015840054912098143,0.007125595484619938,-0.42075630062508684
889,8.342105868819091,-5.881353532280201,-0.47901649290550474,-0.015025238379449541,0.007121249429954481,-0.4173370838003422
890,8.703795953807187,-5.3766106536662095,-0.39281989696104785,-0.012589520084426006,0.0054086378576051536,-0.4096645958921951
891,8.367178440325645,-5.135271674477732,-0.4467623175219113,-0.013239160418512521,0.005625816094174992,-0.4032585862892212
892,8.227217698062493,-5.205100052781924,-0.508022848882958,-0.014125616785033115,0.005649730633729071,-0.3964419301390991
893,8.305332664179447,-5.231262546473779,-0.4409018133437971,-0.014187262879174396,0.004808245475744882,-0.388134751307067
894,7.697388507314432,-4.438906995614282,-0.1059841697097782,-0.014261289078052167,0.003969721324248158,-0.3778952174566537
895,8.12651855040099,-4.719396014208321,-0.09470924085231344,-0.015159124642101037,0.003986845960381525,-0.36765722033105963
896,8.552466014871763,-4.724732160936529,-0.2758930822626146,-0.013540162788602896,0.0039770622392327065,-0.36185784247612596
897,8.577579100068174,-4.787922503895609,-0.3892231803468966,-0.01231072747735671,0.004393299070455926,-0.35546739334232397
898,8.207841525937289,-4.865756170270305,-0.28367515728912185,-0.01215690571400799,0.005044760906223468,-0.34650892517169724
899,7.8726064964002616,-4.505861197514422,0.07813599855664861,-0.011385859290058017,0.005048748480967114,-0.33626110716252633
900,7.93014981983006,-4.8055046900286476,-0.08648010780827334,-0.011416973471372042,0.005904360543601292,-0.32941019912835967
901,8.290574457555824,-4.991763778350416,-0.2712003479583559,-0.011440396440048057,0.005491513161309519,-0.3263968123659724
902,8.246892782716994,-4.8828078843083915,-0.40099834604079737,-0.011477365400496625,0.004224085719092472,-0.32258641860254145
903,7.856504925000461,-4.57593590704045,-0.31439699881155314,-0.011940518393317029,0.0033659265602133358,-0.31536764687273044
904,7.999833531603093,-4.464372481267256,0.24953196872723074,-0.013667535148345539,0.0050985383413711385,-0.30427205839875826
905,8.41325031153357,-4.415001002520662,-0.3361453097985842,-0.012890445466291067,0.006804506334290196,-0.2948589428848146
906,8.477785550363024,-4.487173955529797,-0.4238047373116981,-0.01149463478070285,0.005335944232098835,-0.28737256561175073
907,8.336301172667502,-4.556495538212179,-0.48405387291478774,-0.010703775354262772,0.004884008421085535,-0.27927739641076815
908,8.228123796128038,-4.570940951591566,-0.6096528445986453,-0.010759358872803534,0.005770475261881675,-0.26926071149074954
909,8.495542270192008,-4.55710730952677,-0.47034980866300163,-0.010852693649663793,0.004082208392341828,-0.25731940241251117
910,8.546107748072412,-4.462723829627949,-0.32031084290482864,-0.00925312446500946,0.0023716360856288637,-0.2504540487192262
911,8.586948355658343,-4.610397457955582,-0.47015429936574843,-0.009484010817236226,0.003209549725145175,-0.242987951558771
912,8.34460422699506,-4.840332266565415,-0.41580853089652103,-0.009942163099585358,0.003665330875657273,-0.23698811900254493
913,7.98507085374574,-4.870336218050691,-0.22441172666777084,-0.00997117353043413,0.003231762095684912,-0.23313648374060666
914,8.16110531688857,-4.281300862897353,-0.5954879127385475,-0.009979222705529095,0.004085913024693444,-0.23057138875656935
915,8.392980063196312,-4.72042030333383,-0.3057038686317477,-0.009204094584368206,0.004094383726594196,-0.22207631069353007
916,8.46110019501205,-4.708942735634507,-0.33953679467675607,-0.008406065777079582,0.004093197497959467,-0.2160696115886147
917,8.390538250274933,-4.546307473958803,-0.4981211682693162,-0.008850000817293903,0.004106055532449285,-0.2088512026687857
918,8.361104707008398,-4.4538082120236675,-0.6116965381181201,-0.010182562255261884,0.0037190185131740243,-0.19947114356529505
919,8.725197845257362,-4.554759780471337,-0.5500173780364536,-0.010259479238153752,0.0020284263510732953,-0.1900899550482727
920,8.62671254938999,-4.344815701108066,-0.2805534830589739,-0.008628523530589367,0.003693063050813421,-0.18322166995950617
921,8.781693389174615,-4.361474404360328,-0.4110699693082692,-0.008255559901700536,0.004141157813786882,-0.1732241002502517
922,8.759825765695755,-4.4356363216857355,-0.4639802138900092,-0.007912205620973316,0.003731039313512068,-0.16338475348356316
923,8.532191253071803,-4.467433333403229,-0.37656722395786885,-0.007544072626481733,0.0030918000661589768,-0.1542328675858894
924,8.526900599807945,-4.439209167361349,-0.5581273818264859,-0.008451119593912272,0.003113847830934589,-0.1431407013136844
925,8.325290879557583,-4.366776302326536,-0.25588868215389315,-0.006043312741715478,0.0005668685001491513,-0.13627030942046633
926,8.42244436483368,-4.39461059811646,-0.3742368898800995,-0.006057591360000518,0.0011747200147338719,-0.12817471532947905
927,8.522818936795368,-4.427735465548995,-0.6102373414842543,-0.007335982655084944,0.0028992486734222347,-0.12047519277515867
928,8.494988832875425,-4.417666687618457,-0.7258534818394872,-0.007843798788260256,0.002978728365515452,-0.11405883198068775
929,8.397352231733333,-4.36955928222684,-0.5635117500086183,-0.00458238839356476,-0.0021568000546707414,-0.10894235248474694
930,8.426839722902137,-4.308827362957504,-0.18204866176740142,-0.004548869944590754,0.0011689903873801665,-0.10380403859027694
931,8.614877560726747,-4.424974327711035,-0.3291842313003752,-0.004570843959673938,0.0026919653192870293,-0.09804350105395296
932,8.661886681250495,-4.451791093461839,-0.5411875180927341,-0.003389561303648728,0.0018710176970007791,-0.09206545029914423
933,8.523467003286115,-4.368712070018196,-0.5226533130254691,-0.0017439683456840387,0.0001231798234850318,-0.08506777330340715
934,8.446512046720944,-4.438855332504418,-0.17544228590396538,-0.0026371794338605546,0.0009952117025645905,-0.07482481263937896
935,8.44519940068467,-4.257648968904528,-0.03830683240143167,-0.0034975912798921333,0.003548482473098041,-0.06710746785954111
936,8.705226693757957,-4.305080361169377,-0.2884254356151977,-0.0031593837471321955,0.0023334191442531313,-0.059429123498007844
937,8.820117692874472,-4.378317255959681,-0.5927959502220888,-0.002395139373434372,-0.0002200954456776517,-0.05217181490155004
938,8.713046644014865,-4.371523928372998,-0.7097771846358912,-0.0020201227660794963,-0.0015507471710251121,-0.04453258922509904
