,acc_x,acc_y,acc_z,gyr_x,gyr_y,gyr_z
0,0.12389089068663309,-9.473505317277265,-0.1531273222042199,-0.0009334289574355242,-0.00010137968845571494,-0.0009658689994152916
1,0.13721208514531108,-9.487020167364054,-0.1545908665127675,-0.00030460571775006273,5.434390506115021e-06,-0.001063844613130102
2,0.18345897475852196,-9.451688588461296,-0.15193457680311354,0.000530476239954777,4.763035099499426e-06,-0.0010538151836325086
3,0.20650503641736923,-9.415987898802328,-0.15386354579015143,0.0007324445007685191,3.031021274422309e-06,-0.0007307203561829347
4,0.16033886394015218,-9.432962220704452,-0.17746629453986318,-0.00010887428945845388,-0.00011190827607253412,0.00021761110629011746
5,0.13635225566435155,-9.491498686578684,-0.21692888580182743,-0.0009549495496056585,-0.0009815610128357456,0.0019086933101890465
6,0.19331014830450194,-9.45137817032253,-0.20825577027477093,-0.001047267661418419,0.0004373527049789314,0.0006135757535412855
7,0.2054978153861659,-9.444892480628567,-0.19480601937106906,9.642073886118605e-06,0.0010767753893371592,-3.6064287953697242e-06
8,0.18363140463013314,-9.464735865358213,-0.1837429229637381,0.0007225670923642828,0.0007459612272593368,0.0003296833328660197
9,0.15634622045084043,-9.480371254012201,-0.1805127761577076,-0.00022768646447967082,-5.006459772919311e-06,0.0010574517233489947
10,0.10739395866348904,-9.482354169924522,-0.21464098468376205,-0.00189863449440367,-3.6631185790245914e-06,0.0010373834470490686
11,0.10036910081797525,-9.457832275458461,-0.16149256566547826,-0.0006139218445844149,0.0007601234609235187,0.00030076267896131213
12,0.11038096617759507,-9.45691653822431,-0.14310420609085006,0.0005257047454135892,0.0010737272145955987,0.0005405578875165082
13,0.13436931969443724,-9.475069932022542,-0.16459104702309832,0.00071698713811005,0.0010726154718713504,0.0007385616014641237
14,0.16817993275869952,-9.491066232781748,-0.20036356905929023,-0.00011332167318920571,0.001193845924820669,-5.487585903723142e-06
15,0.18971892794513273,-9.458598012136452,-0.19348689532907082,-0.0009484843374151253,0.002057346851872931,-1.8500619536292547e-05
16,0.21342755662939755,-9.454903782523989,-0.1962026843411227,-0.0017841989818453874,0.001391175245431557,-2.6232498681109562e-05
17,0.18094806540542874,-9.473407279298382,-0.1910043176400793,-0.0010224192362744272,0.0005282491410048375,-1.4102585380947166e-05
18,0.1674432591594704,-9.476084878681696,-0.18925888996427292,0.0,0.0,0.0
19,0.22042175568609304,-9.441998713991191,-0.19682790406081707,7.581269873720801e-07,0.00012040678270117468,-0.00011838801674161147
20,0.18615517243494928,-9.43758305487767,-0.17756953277254245,6.211864507869766e-06,0.0009865769619425626,-0.000970035800866929
21,0.16234328009694304,-9.497939736924971,-0.1595199103523074,6.812477608747658e-06,0.0010819671700864,-0.0010638266763091
22,0.13888428120766433,-9.491625344896065,-0.17310170386295248,6.915803096245298e-06,-2.2680693782028212e-05,-0.0010600068814821438
23,0.13732581516399253,-9.469811900528091,-0.1905382228065829,-0.00031999815044447897,-0.001071336375890228,-0.0010603072467994545
24,0.1591769403881376,-9.491579051599242,-0.1844256173829031,-0.0009171708508908718,-0.0009480584802666629,-0.001067903847277207
25,0.1121827690722833,-9.528973753433942,-0.1655981503547659,-8.216952399746644e-05,-8.670967263143209e-05,-0.001060855223036402
26,0.15920756954351523,-9.477586476053128,-0.19633859571277928,-0.0007440213683525248,2.0764107833797697e-06,-0.0003109363398320419
27,0.1783588187920026,-9.446658053557055,-0.20748774050783594,3.630933008483283e-05,2.647012405657777e-06,-0.0005462968096781519
28,0.16817604789597562,-9.449016200173254,-0.20178792063981954,0.0003880542321192563,0.0003437651461086891,-0.000721422757944532
29,0.14757592301470573,-9.472701286194322,-0.18357596941910254,-0.001164376876997987,0.0010783253516511836,-0.00014153378613167343
30,0.1353378575678673,-9.476639888203334,-0.11683597359318033,-0.0019947085808853676,0.001083147353638052,-0.001000239611802621
31,0.20167774285795279,-9.448356118831397,-0.15651306614033603,-0.0005769595549439624,0.00031314274529397116,-0.001829988196587254
32,0.20827009048931644,-9.463844534258332,-0.1638908625954213,1.3780666738949716e-05,0.0005686325505451594,-0.0021231322962005626
33,0.17079797708591474,-9.500271236515283,-0.172844395076939,-0.000656517864775903,0.001084382339309832,-0.001456253024828121
34,0.1288702683176663,-9.514392512668678,-0.21267073273213358,-0.0020873474918896,0.0010784612421683,-2.879151250258542e-05
35,0.11859029334232324,-9.44357096361022,-0.20636493166282247,-0.0020873474918896,0.0010784612421683,-2.879151250258542e-05
36,0.15502116737050378,-9.44268963568673,-0.16432249175417327,-0.0013299185983631791,0.001081592166042214,-0.0007837247732161485
37,0.15647324482555683,-9.46302404245748,-0.16723543168799823,-0.001580520980119275,0.001083243290219454,-0.0010828907320662553
38,0.17024378116572636,-9.47296905887285,-0.1810810815417449,-0.0017444815380003543,0.0010833751045952647,-0.001084859917055213
39,0.22270392770119676,-9.457097418786798,-0.1789087761028347,-0.0010371544103285725,0.0009504701403301177,-0.0009462379520702034
40,0.2104658622543597,-9.443329816636728,-0.21403617831918953,-0.001042608147849112,8.42999610887025e-05,-9.459016794490748e-05
41,0.19247719729519444,-9.44867526317909,-0.18972005221413718,-0.00028844461774840484,-0.000778726749813219,-7.715432664209908e-07
42,0.16522468605609855,-9.472478950976626,-0.1587184338022099,4.794592319126164e-08,-0.0005125875804422052,1.7724918973475138e-06
43,0.1522570609024026,-9.474639569947112,-0.1566330893803458,0.0,0.0,0.0
44,0.16334837159356028,-9.44432458537407,-0.19180965394685065,8.646094130092966e-07,6.4833832067389e-07,-0.00013258341592667326
45,0.15502648708971054,-9.478755960865486,-0.19768881386171835,6.39897774491105e-06,4.798354520251583e-06,-0.0009812503947952567
46,0.13871189643765908,-9.487759874516343,-0.17760438643204204,1.8930473636253827e-06,1.4195255455492233e-06,-0.00029028909725475975
47,0.11996820515488218,-9.479921163812685,-0.17537616124252842,3.641320968276017e-06,2.7304906540282042e-06,-0.0005583778816137696
48,0.12620286202294612,-9.486588540155445,-0.18376669237252263,0.0003460057049381371,0.0003556134441229288,-0.0007102800783286199
49,0.16148527367204102,-9.510726622776378,-0.19716800869246923,0.0009096837781587281,0.001213818487987216,6.726941884854964e-06
50,0.1531633891681918,-9.460069850503313,-0.23729808038002134,7.452111393284836e-05,0.002077319415039478,-6.286091747714445e-06
51,0.21749462298445188,-9.443873186640317,-0.18101311708829465,0.0007652776888385388,0.0013721133848936837,-0.0007683377211061021
52,0.17240939802183244,-9.449316356983047,-0.16170222694568168,0.0004940242452758121,0.0005086963060116869,-0.0004946605775543626
53,0.13081685277444047,-9.46246265977128,-0.1661473373412998,3.324011047813289e-08,-0.00035536843738829225,1.2288391289160698e-06
54,0.1744089398750893,-9.465086354137483,-0.16984819671661502,7.441549065060099e-08,-0.0007955724650008014,2.751033777974463e-06
55,0.19301079935428161,-9.425733321024,-0.16990513667186719,-8.684613215682522e-08,0.0009284678610828026,-3.2105767355836262e-06
56,0.15031747868375483,-9.433600125746445,-0.20018288150070204,5.031234124130999e-06,0.0002927137388687478,-0.0007766571108657075
57,0.1513232573250587,-9.449492679798936,-0.19548173260264767,-0.0005519562504860902,2.8712197521367948e-06,-0.0005025493442172396
58,0.15712229994277918,-9.45758768466359,-0.17399719480253795,-0.000696028847895999,0.00035889590294964704,-9.598085261049724e-06
59,0.14308360593293218,-9.455458637196225,-0.1560446208005949,0.00013993454101094888,0.0007902159966945879,-0.00014240933520166078
60,0.17147591776959592,-9.469712943585485,-0.13969531757642187,0.0009807121286705357,-0.0009303456685961828,-0.0009750852740590827
61,0.15675506199980674,-9.512859071249176,-0.201777956275517,-0.0004872374988339055,-0.00028418294487508406,-0.0002864085832718567
62,0.17740954614692078,-9.49482880208467,-0.1966763310871753,-0.0010468860212169868,0.000574132611424089,0.0005526235845751058
63,0.18903081200844213,-9.476277683575088,-0.16773522348669995,-0.0003477671128434951,0.0007123102427688129,0.0006978009270020841
64,0.16320846276106932,-9.500208950620983,-0.16094873405147553,0.0010431473593126663,-0.00014737984965576046,1.30348833693185e-05
65,0.14754373898911788,-9.520871167972867,-0.1742690524403912,0.0010432279901240128,-0.0010094000126975894,1.6015688626097542e-05
66,0.16072899395095697,-9.468605064128887,-0.20681716452191515,-0.0004948240182811718,-0.0002825870546840971,-4.964668883234644e-06
67,0.17507843124810502,-9.454342257156496,-0.16390493187732194,-0.001604654893591005,0.000580325280461038,-2.1273701069677895e-05
68,0.1757527384083319,-9.464005880842215,-0.12801402027047623,-0.0013835434179382217,0.0007118676412924987,0.00033957799645008236
69,0.15929867094813158,-9.472789600561146,-0.15244719301804768,-5.953313414052771e-06,-4.4641674763617395e-06,0.0009129100570047979
70,0.14608156026554756,-9.4624651826399,-0.1732328867400234,-4.1894508215137106e-07,-3.141512767843117e-07,6.424307813626856e-05
71,0.13874651199685875,-9.459412613108896,-0.18989169536846787,-5.264547538589576e-06,0.0015904448019937588,0.000778910990018035
72,0.13817282911643036,-9.463927090944367,-0.21454273667274074,4.673890342187401e-07,0.0009904445321737493,-8.929548849427149e-05
73,0.16210085958042045,-9.46885542524002,-0.21981988950522185,0.000362677057038396,4.897935497762384e-06,-0.0010558304709456714
74,0.1971320831585251,-9.46878399020038,-0.19683959527195122,0.0010500468490002,4.34533174202311e-06,-0.0010475750813954
75,0.14915886660692393,-9.463880848852941,-0.1889580849909184,0.0010500468490002,4.34533174202311e-06,-0.0010475750813954
76,0.1538672543713905,-9.473562587023132,-0.19341368315919616,0.0002753044201275272,4.968177815464459e-06,-0.001056879826274009
77,0.1380964192806347,-9.498739926082521,-0.2075392093971551,-0.0005635879036835737,0.0005877944450371322,-0.0004930224482701007
78,0.14600232411683312,-9.493953281310892,-0.20821329689222623,-0.0010431997432252822,0.0007074137639844401,-1.497144136108843e-05
79,0.18529265720159818,-9.4520376283024,-0.19550954767804335,-0.0008915337744033058,-0.00015397910458808344,-0.00016321914839022641
80,0.1539632096576934,-9.463359883736604,-0.22813188812438134,-5.083681755513022e-05,-0.00101252060683697,-0.0009988758925044059
81,0.18098092155831813,-9.461381762022238,-0.21379666828395838,-0.0007706036924451798,-0.0010709741162771946,-0.0010657190707204765
82,0.1565527624498847,-9.472192261296575,-0.19464346874605581,-0.0010399494349443434,-0.00048565210668820134,-0.0004921094515511457
83,0.18560140223307958,-9.475770425480214,-0.17549297579015644,-0.0006792584629003329,0.00037552056056001595,-0.00037687203608486523
84,0.3333249586455361,-9.467877471823183,-0.1639660904063012,-0.00014766709458469103,0.0010813278986203869,-0.0009097107427499842
85,0.5457777748026381,-9.488467180066035,-0.18262849928055228,-0.000988283420621395,0.0010778492378274434,-7.107319337901761e-05
86,0.8314342077558019,-9.458927674815039,-0.17269586587493319,-0.00027301625578283003,0.00026356321970904607,0.0015830324585515572
87,1.103083534332889,-9.435665499328358,-0.17566589003290906,-2.906675539795688e-05,0.0005691523595016824,0.004446718812155021
88,1.4699823315136857,-9.462142710881857,-0.18708084846107412,0.0003010223877820367,0.0014055727681242338,0.009695511870751333
89,1.9751942146572155,-9.525247700409482,-0.19857037546084386,0.0006130605456450901,0.002066109234110123,0.017972753051451205
90,2.497514847928221,-9.493603980050834,-0.20136882049816066,-0.0011290657478491893,0.0020134900441423896,0.028987755528955248
91,3.080910148762335,-9.365512224520634,-0.20198156888262522,-0.0005573685523614126,0.0011223221560815785,0.04560880640461301
92,3.851463349392744,-9.417698604710777,-0.25962408949411997,0.0001364582708547386,0.0013417872341773605,0.06727378185029739
93,4.687908696902863,-9.520203595021082,-0.25030758350409293,0.0004272126393917988,0.0028294491821473453,0.094402253790052
94,5.56232181818091,-9.538366143404863,-0.18515998658346566,4.926037165106542e-05,0.00475871358154686,0.12790564506711172
95,6.688713361907865,-9.382095145828325,-0.38466481347453135,-0.001062607558318597,0.004551833469499866,0.17033932389627937
96,7.650105051034068,-9.126315606618526,-0.2688288550573779,-0.0006645322390442911,0.004296790479942013,0.2223825432232333
97,8.58362292178353,-9.179698682552186,-0.308484966765308,0.0009346562175007928,0.0016125292156366766,0.28268580060576687
98,9.69221999121785,-9.2759021773561,-0.5094966812907024,0.003359019197940415,-0.0006489229247484598,0.3520367745774173
99,10.61953755242953,-9.157812450245913,-0.7123652752427179,0.005862710806385686,-0.0012035394927029282,0.4307793524004546
100,9.840217544774989,-8.65736805727013,-0.48709976369198016,0.006958024852673668,-0.0024986098933729812,0.5190852827852089
101,7.757812859146565,-8.583994665536903,-0.01829434185558436,0.007947821055321509,-0.002242986048057014,0.6234292011678
102,3.3531215635226266,-8.491036294438082,0.017528389049039354,0.007804340140049338,-0.005469538338831198,0.7233899873513912
103,-1.2964815453273097,-8.51527751994434,-0.17979701692658767,0.007158421685523405,-0.012191197802577871,0.8225492919795471
104,-4.593114959666923,-8.68929988120978,-0.39911703500927814,0.006644808492926979,-0.021029115308993693,0.9014596993194293
105,-6.102802713188857,-8.784212837208997,-0.5182426297327085,0.006717501896323659,-0.028734949796068714,0.8904506739575938
106,-7.149154703060018,-9.116873708640252,-0.3887589752972268,0.0038035425762733186,-0.018310694445330858,0.8511646236997534
107,-7.253263807106233,-9.01885877079308,-0.09468261316509444,0.0049052131871937105,-0.011056610465645714,0.7967508076937053
108,-5.985964086598156,-8.801254891662168,0.18967972081261858,0.008630404189918457,-0.006311105534138292,0.7250412114464976
109,-3.6388685593893477,-8.867378735968376,0.31094801499301533,0.012340412718059484,-0.0026321082246020013,0.6420609658443496
110,-1.743926505601002,-9.71569053407396,0.14654210994978187,0.011975624425401963,0.0003082701335322728,0.5698877668475135
111,0.5852806816821604,-9.617723941085366,-0.19851975370037753,0.009009605507099042,0.001446782201397803,0.5308189620141831
112,2.4266640202458793,-9.137487762817166,-0.14877672676370216,0.005212302620546569,0.003016330169453569,0.5107148146089626
113,3.6540448120622413,-8.933067842297888,-0.1469099857960275,0.002142182368242977,0.00589411522180394,0.5152611450795277
114,3.887576997411027,-9.310367442019277,-0.321682803530764,0.00045887181460806396,0.00777760792590907,0.5433055427683147
115,2.12088986950554,-9.995077053763737,-0.15816038195581575,-0.0006246738792015504,0.0006937016700460062,0.5815189418725467
116,0.65348922855387,-9.222693034387722,-0.13197553384626393,0.004569235227063484,-0.004004211493918712,0.6360187000134498
117,-0.09679877175880697,-8.87715309338205,0.047728800698611934,0.00952517371854554,-0.006718721674191949,0.6822763609744368
118,-0.48425542659005727,-8.797384162098394,0.14048965675825037,0.01316788192430567,-0.007037778697241083,0.7166204366408596
119,-1.3140286252785718,-8.778877652069363,0.09923762146014417,0.014325402633893309,-0.005593465832996604,0.7370127814800597
120,-4.14738553753043,-8.72321677326307,0.24230696786478284,0.010956527747199001,-0.004748708083799262,0.7412145993757779
121,-4.360525776254422,-8.865241944340177,0.021856037692089804,0.005960293075256174,-0.01632311928658592,0.7495082745972107
122,-3.6796624421799544,-8.74121037259352,-0.148416584426379,0.00405292833656856,-0.012991144094244747,0.7278436458832326
123,-2.5460910550524414,-8.863040574651171,-0.3894395638758412,0.0026539612337478174,-0.006129813002927869,0.6961915334613977
124,-1.4986408628017298,-9.294442211723224,-0.5938473074529609,0.0008654496824356913,-0.0032669948433096422,0.6672965407944838
125,-1.35423169052906,-9.314561709215203,-0.23435336371939125,0.0010536649750301896,-0.003125859221964603,0.6384346916793302
126,-1.1547148186554568,-9.122181289025239,-0.26998445939688903,0.003530922193510953,-0.006396957117380432,0.6283988807732981
127,-0.5285907366274449,-8.952874807364099,-0.15101556929302332,0.00850366468993171,-0.004253347123251528,0.6154807452893836
128,-0.30686025198211786,-9.06015473109012,0.031342290443183846,0.011673171000753624,-0.0019184911152874446,0.6101366020793514
129,-0.7082475005070282,-9.310625072145283,0.12200730229401813,0.011104146783756819,-0.0019411830157170743,0.6148590496704246
130,-0.9574145130046178,-8.969368002942264,-0.10112140710342661,0.008575974126210636,-0.001955772280643731,0.6182244167505038
131,-0.49187212672151703,-8.843976062645112,0.14708574756448559,0.0050813031537898295,-0.004587888930493628,0.6461795125915536
132,-0.5750293924518965,-8.714824045353742,-0.06139354462845514,0.0028325921412900665,-0.006015896241185774,0.6622477866957706
133,-1.2598878111541756,-8.839159215810952,-0.31095217324421565,0.0026696425627875057,-0.006112501984193357,0.6705050563135683
134,-2.2618962074636553,-9.106757758263551,-0.36097801850094086,0.0046518532865884605,-0.006043886298621305,0.6785862629871721
135,-2.870862344098376,-8.833980675900323,-0.293461472798753,0.00787141984151519,-0.008723956576518093,0.697310787295765
136,-3.819007909267312,-8.564647755402218,-0.02056310661619252,0.008099314609827704,-0.0036974522749348582,0.678129560242495
137,-3.3200314204370263,-8.63346676993401,0.11556695717908597,0.009323574254604101,-0.004095980668161529,0.6748836863368644
138,-2.9021301459027584,-8.976869821088467,0.15936050736660834,0.009487696534771503,-0.0041973894857548905,0.664693595180868
139,-2.9381492284891593,-9.22854368090535,0.13291977525841203,0.008154503824040687,-0.003214816395077684,0.6412764488272301
140,-2.0090352997652428,-8.593284199400117,0.004225874076502501,0.007425089904759975,-0.008308201738361316,0.625154853207232
141,-1.877325631315684,-8.626484147966323,-0.22418374005536193,0.005774251793599299,-0.004258614133625335,0.6255036514980493
142,-1.4345971124682666,-8.65357385986393,-0.4331421978726209,0.004662305107159547,-0.003722936557826223,0.6324784438954352
143,-1.5946271758265667,-8.741303571234544,-0.4694345535490399,0.005773078334768783,-0.004203062328665155,0.6378057736408242
144,-2.4365576382745573,-8.81704674247782,-0.3435232179859054,0.00814998394447041,-0.004417368074690955,0.6415500042605753
145,-2.8384557075487065,-8.583550962113808,-0.2857420957462994,0.007226412013616279,-0.005345942137038557,0.655124817578721
146,-1.9404023755828097,-8.437003498071647,-0.2658683728044652,0.008094592971367746,-0.002787569849753784,0.6438537481078564
147,-2.2036235870239906,-8.743392972763218,-0.17482827027804165,0.008267569648061785,-0.004002638885566575,0.6523361918494242
148,-2.5812477342031377,-8.890211577126987,-0.17256018740162177,0.00822057282485839,-0.004153430446900064,0.6595449702884777
149,-2.794068296741802,-8.730140525950759,-0.23599097746763276,0.008049964482322291,-0.002339279076091558,0.6564082600912966
150,-3.684020416035747,-8.748621447998858,-0.09346488563530271,0.007248179758600263,-0.0031757199930716384,0.6513076158530392
151,-2.1466028079006954,-8.547156521701504,-0.2015641911872982,0.006343615784478224,-0.006622960971287831,0.6620127428124549
152,-2.5653172412537644,-8.69799291751832,-0.3780102033547818,0.0062037774285795995,-0.003710739386521826,0.6488598305988649
153,-3.1225687498299917,-8.7691760000394,-0.43347906232162003,0.006233129158895903,-0.0030785015239830752,0.6443480312762568
154,-3.0492045005680186,-8.644316038177148,-0.2588728558530575,0.0065870428488375606,-0.005615602849895378,0.6495369573512126
155,-3.04088261606417,-8.625623510827142,0.16229500246996867,0.008422956787968741,-0.0020435238401196785,0.624078705861026
156,-2.8030672021067726,-8.573987168206646,0.2288177004157555,0.008324133250154471,-0.004622574376108776,0.6436742436855922
157,-2.3320994520231295,-8.939216080285059,-0.05609514371422514,0.006466346377030226,-0.004691295864471663,0.646586759235056
158,-2.643265128863342,-9.048229959115842,-0.2709284090383454,0.00563649988691039,-0.0029496103331280023,0.6378273086807064
159,-3.3507897259585424,-8.65931965406844,-0.30142358310824113,0.006322695805744908,-0.0019518911399678584,0.6305945873964924
160,-2.356079766439678,-8.06191092564471,-0.4082757248376704,0.006217920129965225,-0.006342480563820574,0.6467381539710477
161,-2.667837247453256,-8.49379023354891,-0.14976481036997075,0.004622987720684728,-0.005510285328925026,0.6385644430261421
162,-3.421767935892535,-8.671476729560325,0.017005689871691723,0.005955915495776731,-0.006612080863718438,0.6501198403300799
163,-4.111659570252991,-8.607411732815391,0.11267036930287516,0.007254842037760013,-0.004959074173181138,0.647678498640801
164,-4.231496764498148,-8.348586783854206,0.11973137991225295,0.007153512861224188,-0.002182966509422027,0.6325793153434862
165,-3.254409619222628,-7.957264199844046,-0.033258882313501034,0.006219275423472911,-0.007430750827982089,0.6478663694445312
166,-4.978835111933344,-8.889386800883978,-0.41272184206709567,0.00540963075826451,-0.005757189031161477,0.6438072210848444
167,-9.9223156280313,-8.944599657813665,-0.3858353783519395,0.006474410995478182,-0.006554494014110729,0.6370636065307774
168,-14.587793156313172,-8.3642102101335,-0.2113546354965716,0.006194577072007907,-0.011168318745875965,0.6215089923709803
169,-17.198714647262847,-7.80352123017943,-0.0034220942378234837,0.005161726750020959,-0.01601753422513115,0.5819043279818554
170,-17.901669126529296,-8.351653321189323,0.29478922282711345,0.00824868831806418,-0.012134798051597057,0.49279015451525854
171,-17.510730360178776,-8.626868479977755,0.3121713916616233,0.009187304972582275,-0.004569154590472092,0.35136407904089473
172,-16.501469594610903,-8.487231063875928,0.35294414110201616,0.006530617946410987,-7.1379960541861e-05,0.18680738654546414
173,-14.071756889197205,-8.633028473237784,0.19226469053472794,0.0021247806852240712,0.002430852804739495,0.03037778921636313
174,-10.93456375329042,-9.112011820390473,-0.12464061400520157,-0.002618658949528351,0.00460681647043149,-0.1074653821944215
175,-9.41753316050042,-9.2743283297182,-0.2626503824573404,-0.0067777568225150285,0.008698993657911238,-0.2382640837704884
176,-8.480568342709779,-8.555996032139053,-0.3363342955136577,-0.008103828717612713,0.0064009096769473825,-0.29286309643400926
177,-8.642551036664317,-8.437193272701471,-0.3098688966818349,-0.00937834198651491,0.004757013261938007,-0.3535499494050723
178,-9.316149889488365,-8.74406058876965,-0.24687180513654491,-0.008645870175649904,0.0032732229890930758,-0.40281957441539373
179,-9.90505145634939,-9.019771556462485,-0.20272176333797215,-0.005892280157340313,0.0025916982088970758,-0.4407660990080421
180,-9.811116063368866,-8.527929894850052,-0.22374683528550388,-0.0030939154106573376,0.00453442052618352,-0.48573304061552103
181,-10.844008787081965,-8.615313712409167,0.04637750854890927,-0.002722938487279108,0.00394971218102838,-0.5426050882628304
182,-8.754990891255721,-8.152887194457005,-0.02906550631919559,-0.003535496962132226,0.004066905939410511,-0.6103304323660357
183,-5.597454000497619,-8.088021168899868,-0.05544856917749634,-0.005556989095248266,0.005732282259124252,-0.6850780810844836
184,-2.323264716295781,-8.649804283393463,0.051101721585139925,-0.008014733991580982,0.009321257981713649,-0.7559294860069652
185,1.186489281098913,-9.356891094700222,0.06851903977220244,-0.00935978580775677,0.014748738412697792,-0.8051220680342733
186,1.0269049076721495,-8.647709975584563,-0.3568765790993245,-0.009188980079691406,0.023499244433070582,-0.8314677298631481
187,1.3211555054828708,-8.238539061243102,-0.25203938333481735,-0.01066902021935911,0.015045846131918315,-0.7975763185707307
188,1.6491833930865347,-8.368654477638842,-0.2600776586776836,-0.011838000066763821,0.008834717421247685,-0.744944002033684
189,1.331171936331174,-8.831040175088743,-0.4852407785645966,-0.011521214319034998,0.008769606514720465,-0.6951117668191906
190,-0.5412488414079527,-8.999278889136898,-0.5259987091745023,-0.009302915550488693,0.0042457973337516434,-0.650883749154415
191,-2.6936797921975426,-8.734369995318085,-0.17189528520356329,-0.0071239527588509086,0.0005499838000533808,-0.6007584300367346
192,-4.576053927540775,-8.556962700835717,0.07120268490944118,-0.005442982959597387,-0.003044665393592263,-0.5712245952018217
193,-5.341261251169112,-8.622596658938502,-0.07670810349219852,-0.0038430217994172705,-0.0034777401182324195,-0.5603734774700828
194,-5.203180174231945,-8.812155969885797,-0.35872248242189414,-0.0029899556913290776,-0.00018263617903133025,-0.5680535095762215
195,-5.321541281557942,-8.759532420996253,-0.04769385594114315,-0.004483522722706818,0.005071552449180694,-0.5952461858843648
196,-4.729708436548933,-8.421942744838633,-0.14094018550702178,-0.005982863761621843,0.005201577466392101,-0.62158130546881
197,-3.9832289183955867,-8.529098127290911,-0.08699891435941606,-0.0062017879393000495,0.0053369011386449425,-0.6491938278652437
198,-3.4692601515561643,-8.879104434182972,0.010628261220329085,-0.0064241545322949265,0.006374112899721625,-0.6806928167245545
199,-2.9070128845679677,-9.144347220519098,0.028766535098526412,-0.007500892923425028,0.007794189042078968,-0.711052092802458
200,-1.4640852622214768,-8.898815548754353,-0.17087432808996153,-0.009870105488049157,0.007845714228317813,-0.7285206787139369
201,-0.38370884457475746,-8.854206631481894,-0.484906372652706,-0.010771373487362833,0.005209703801413856,-0.7183353685711558
202,0.016139255064689252,-8.98018700951516,-0.31355683032905135,-0.012252379256688654,0.007234069832811368,-0.7172615426713167
203,-0.3877647555479277,-9.059963421599205,-0.21727433140216498,-0.012263672679867206,0.007968724149258704,-0.7075828917537136
204,-1.3140428158070856,-8.901145701805948,-0.22689589390845627,-0.009846245520350147,0.006135042060681944,-0.6855897789674393
205,-2.1211662096661006,-8.353313580379046,0.04616549217466774,-0.005062460220430206,0.004293066618039224,-0.6593411864426003
206,-1.8078717342270558,-8.52289845357789,-0.048835136083115294,-0.003514002957050815,0.0033383800074204733,-0.640642692020823
207,-1.8352454259329758,-8.974424964206131,-0.015166528168998456,-0.00253063766568541,0.004428636496476811,-0.633695679437162
208,-2.3925234356664893,-9.211272304916745,-0.037231712917268116,-0.0034369841793839714,0.005253209153712274,-0.6325169222837308
209,-2.988835832810283,-9.071934649288758,-0.13202480138373582,-0.005716021344339271,0.005023004923480965,-0.6327055118637367
210,-2.6300334799291605,-8.672390586294489,-0.18135000921506816,-0.007413193123196208,0.004190505387205737,-0.6313411680691429
211,-2.758288405812036,-8.549471602113687,0.009216859638612164,-0.0098307331376761,0.005121765501560588,-0.6449561085225854
212,-2.309797185706705,-8.75348630873103,-0.2636377225813471,-0.010327454537282663,0.0053761354301374385,-0.6565811176297537
213,-1.8447620241457785,-8.930494211592215,-0.2529890919312537,-0.009818768988444629,0.00497898315830733,-0.6676097562579808
214,-1.3920014474336528,-8.914044633000914,-0.028465924400047193,-0.008705614417262001,0.004859424380548879,-0.675151901839937
215,-0.6185426737707244,-8.693587725848506,-0.250043414685891,-0.007065375739052259,0.006575730583491869,-0.6736661830302001
216,-0.7149786294918051,-8.85641708930364,-0.15440443811870483,-0.006180635334803111,0.008336457493422876,-0.6813017117618388
217,-1.2021803865571508,-9.196619125162233,-0.19924802684664072,-0.004729293651906671,0.006695173334791632,-0.6764180605739649
218,-1.5103898680704237,-9.290005455797269,-0.09052592901047671,-0.00487972220747722,0.0054210535207866,-0.6665869345798954
219,-1.4774500601280094,-9.091134217175181,0.05633983393178182,-0.006614778868945451,0.0056127250209369655,-0.6567472430785614
220,-1.2457174407360632,-8.841940818476111,-0.1549419390752145,-0.008327648053578942,0.006420355918204725,-0.6502369076142342
221,-1.1453653040720044,-8.965360510801252,-0.36133926066926597,-0.009981987781917145,0.006434153204726206,-0.6528037736975425
222,-1.7667591696709988,-9.205020101904884,-0.20725791212179204,-0.009099341178148557,0.005054672925864773,-0.645421957495349
223,-2.002532058097298,-9.249519089211564,-0.01011015316127456,-0.008355717732112878,0.0037536609429736356,-0.638815880309897
224,-1.586418508038686,-9.085916061349817,0.0535381460834103,-0.008112859651783929,0.003622881240155567,-0.640173944643579
225,-0.8524247946853794,-8.918331817991405,-0.0916036797860786,-0.007167200159197109,0.005383847284842155,-0.6531725345001012
226,-0.3261879804714132,-9.038665105206643,-0.2928832600109342,-0.005529549363256033,0.006219616216034953,-0.6480618514150416
227,-1.0760567256006492,-9.024036680441775,-0.025278522992567803,-0.006487591924530264,0.0070704714453632845,-0.6456380697104624
228,-1.470698124331769,-9.103860439137252,0.043365677770566054,-0.007249906640862124,0.007028441039929292,-0.6484720854977881
229,-0.998082285278797,-9.18800684469518,-0.20027029425860343,-0.007690216525991812,0.0061917683228270085,-0.6535804016595341
230,0.05944362552887106,-9.00149927744829,-0.4854322159983678,-0.00923979211669051,0.005334977316232811,-0.6544155040592652
231,0.27140691906809955,-9.124883493213659,-0.301237857285781,-0.007569547494759712,0.004470805033773863,-0.6543924615961351
232,-0.5815300792997329,-9.211911526641394,-0.1369634485751887,-0.007893106417693538,0.006297832217281507,-0.6504022243784082
233,-1.0735410381534525,-9.132406894804049,0.09742918732873462,-0.008289955854096734,0.007028624426445269,-0.6489575437156259
234,-0.8197458222344337,-8.995751297566972,0.28073729508932804,-0.007565780230224629,0.006169562417992661,-0.6496691259746232
235,-0.13060460387720535,-9.053737104972308,0.157926249678817,-0.005198517367758215,0.005296507826772885,-0.647778501512799
236,0.14597567522132604,-9.116112745128792,-0.3940553494777372,-0.006073053704959558,0.0044052923340598,-0.6418432941625807
237,-0.22922466685150322,-9.226413788318721,-0.5009186239431038,-0.00821664679383327,0.00695215666062458,-0.6433017089151981
238,-0.5198110718950125,-9.220473398592706,-0.43080098187443316,-0.008891300333260332,0.008096350874076933,-0.6476258129756606
239,-0.3508415369213174,-9.092343741820953,-0.2893327680582285,-0.008292833717557268,0.006987840154471653,-0.6485155505727332
240,0.346918313595501,-8.94657360717812,-0.10545764455027933,-0.008351282948849013,0.005291166275911444,-0.6395232401258962
241,-0.1988994053334591,-9.07560891916116,-0.18704443925953637,-0.0083568173171809,0.005287016259711938,-0.6386745731470277
242,-0.3359639273977305,-9.109440564726627,-0.20947766377978988,-0.008340425281976958,0.005299308034953575,-0.6411882076143699
243,-0.5181580507672724,-9.043293647256917,-0.22383318996581958,-0.007867812070278748,0.005781443263285304,-0.644118946629842
244,-0.5256210797680629,-8.955290432250504,-0.21693075543771365,-0.0072762453694915,0.00588406324847603,-0.6444131581584349
245,0.15910991301268337,-8.9738777545377,-0.1364099489117124,-0.007308563714841855,0.004212147020299818,-0.6394279768587027
246,0.09008722389251717,-9.152437252593247,0.10460843061666485,-0.007325172016427476,0.0041996930749722584,-0.6368811790516943
247,0.6602287902012071,-8.991501914788362,-0.07672335772589894,-0.007306604032329849,0.004900189349932251,-0.6397407051831023
248,3.1682863753263275,-8.815394786916041,-0.3278276053090069,-0.007279093436602,0.006725567513949428,-0.6439914385645105
249,7.228901162973322,-8.830507856351065,-0.49791615411979095,-0.007802982604871906,0.012625857207285127,-0.6399314557976188
250,11.412051982359465,-9.136981840022388,-0.536211759383405,-0.00943775461625928,0.025176486570535124,-0.6147091944836575
251,14.246877462464656,-9.063780432874072,-0.25434256663322385,-0.007291449057283643,0.015420001290952685,-0.559468611647004
252,15.135180186718543,-9.293833364510094,-0.3318922028264041,-0.004039785178518759,0.011002038486846059,-0.4689581508993611
253,15.036078705631741,-9.732283037449086,-0.43698410710821417,-0.0011983284936824407,0.008229372914241317,-0.3345734282972025
254,13.846266826651705,-9.977107046125786,-0.419778947984389,0.0008423061304458281,0.004418171358151303,-0.1735840919629963
255,10.878528157497334,-9.529716485066556,-0.24483838040503775,0.0022082087238076233,-0.0022439938045386077,-0.018482298274241624
256,4.421724827746436,-9.24994508563781,-0.1990742298013598,0.0013338880661332105,-0.006348746190724663,0.11565168209339824
257,0.39637936942079044,-9.320707562587804,-0.18225975636113273,0.0017824458690279274,-0.013235820523559174,0.2525370106168457
258,-4.739929249975327,-8.970618296974465,-0.14402699054945636,0.003460328720760533,-0.0219085906925931,0.3224614228445461
259,-9.592459154638856,-8.645388763234752,-0.13519941424930706,0.0033598080124575243,-0.03327894897910103,0.3326141296735531
260,-10.584646134386949,-9.303390773034813,-0.22363657056959463,-0.0018747651108002319,-0.04656353746946651,0.3235973436038482
261,-10.585625179622696,-9.802607673717986,0.07577836003069044,0.0031738138561810832,-0.021768802126065558,0.18944196368155553
262,-8.493105638174427,-9.53012210803087,0.16362442618880185,0.0047733194189685905,-0.01510323618714723,0.06830762078144068
263,-5.220372528438096,-9.298721126017693,0.0949423799607853,0.002721104987193404,-0.01138219855363666,-0.04500384543397783
264,-1.6233398977587803,-9.315554265651748,-0.024898114271148686,-0.0008702876934961984,-0.006580933915185122,-0.14464868693998872
265,1.444440651167996,-9.479194944685094,-0.08458072220081164,-0.0028940321133702216,-0.0020575551211349024,-0.2187088445456506
266,3.740301728994744,-9.553716553302477,-0.36626614241901057,-0.005256293485572319,-0.00022276299155606191,-0.24081582620424213
267,4.897769621318354,-9.565698082619194,-0.5745049680432366,-0.006530461771194617,0.002110451884233074,-0.2223689726026229
268,5.497593390941858,-9.447581439466408,-0.6098191779700861,-0.006240116926153743,-0.0042082964355775465,-0.17958353076371258
269,5.356649742930278,-9.321881498944496,-0.5473823122784975,-0.003919438568972067,-0.016363649383219103,-0.11963500057104601
270,4.0440203056981225,-9.384633061519315,-0.521149741035811,0.0005193190417124127,-0.025991179836979173,-0.04738971844223542
271,2.20243621725799,-9.51998231196656,-0.22607437600387237,0.0033904547243641028,-0.03238246684921417,0.024826301150705946
272,0.22436422661981176,-9.610996384684054,-0.014715568832959908,0.005021078322908803,-0.04008702534903354,0.07908917218179015
273,-1.1330217366334019,-9.506935473293044,0.06307886309503784,0.004114480222366689,-0.04898623052423097,0.11340269252564125
274,-2.1453196433971278,-9.3663192530915,-0.004388757610669931,0.0015158117320987808,-0.05745333496744848,0.12772774844972237
275,-3.435321114800197,-9.443391550173388,-0.19294179157574606,-0.0009108152364043917,-0.06296097766646716,0.12400366685856028
276,-3.7275661176706882,-9.315606301595459,-0.34306630441606056,-0.0024490685084457508,-0.06113597023002662,0.10360484825648382
277,-3.9027255854068863,-9.247205874586559,-0.5620523295179283,-0.002533167006544614,-0.05642821071075811,0.06935301712680375
278,-2.5908236222935477,-9.098250014974717,-0.4744603733844685,-0.002289667602251072,-0.055473529437136126,0.03199988993857032
279,-0.9274559977784269,-9.100934814505731,-0.26604876767380836,-0.0015198266595981042,-0.05651081727673028,-0.004529891251367966
280,-0.8314502690061838,-9.539305264590276,-0.30274138846736376,0.0003115672290169391,-0.054742503719970796,-0.037974835066971725
281,0.1980157963818276,-9.394869211711182,-0.031141996051125075,0.0012462937996459888,-0.05466845530014088,-0.05324479560912269
282,0.6038698097892432,-9.171605422818688,-0.2142319738670456,-0.0006122380484820032,-0.05604701494837136,-0.06019228610736966
283,0.5483092605777272,-9.350977061197813,-0.3525832374618159,-0.0021787396911067294,-0.0582731346098876,-0.05803048808387041
284,0.6432634483375073,-9.589914856184334,-0.30697250193622977,-0.002535387324185388,-0.060626407324110135,-0.04902150368935633
285,1.4589206988354109,-9.325030116120187,-0.11451857761434955,-0.0018416523821755786,-0.06253667827310676,-0.0365692399072799
286,0.8386955419897407,-9.539669065911962,-0.07092259694220981,-0.0019686566309838885,-0.06608104598356976,-0.017032395280580016
287,-0.3992982285873159,-9.690937111512348,-0.13512904186885175,-1.8861359242856174e-05,-0.07103673126798517,0.0004369292695685029
288,-1.102817990594302,-9.726737579313792,-0.10204319516690576,0.0004587638716988997,-0.07480891584934185,0.01743407030693142
289,-1.034587475686309,-9.753839102519361,-0.05711512241124545,7.573729816665091e-05,-0.07802393068342214,0.031384897072448945
290,-0.4968736444300248,-9.889528323855854,-0.17824303227342705,0.0006144593554517014,-0.08236795091939351,0.0380820409341263
291,-1.2458432497764904,-9.655159185136018,-0.36037422658783064,-0.0018579507992391219,-0.08665193855595112,0.032973254439473874
292,-1.5678906467281961,-9.232001016981325,-0.19241072186878969,-0.0022224003993156906,-0.08805977215681861,0.02226574604027172
293,-1.3415815631115982,-9.218182218903356,-0.2347453311247607,-0.0026526679647921126,-0.0888828110525284,0.01430072969797469
294,-0.8644840150309396,-9.38502803625893,-0.3133219618417936,-0.0026170492711392658,-0.08914287972329482,0.006978574674379936
295,-0.5657508794590128,-9.265616593964449,-0.13327225585748498,-0.0009379489368756804,-0.08856791457473046,-0.004417637548732803
296,-0.3224581383758799,-9.331445687880223,-1.0194498570098196,-6.379340871229073e-05,-0.09198841808405375,-0.010337944692215393
297,-0.3335411371831315,-9.200975917082443,-0.569902924912242,0.0008286087471632614,-0.09396334693816305,-0.019081766378101005
298,-0.2502278174539758,-9.257156831850537,-0.14780125616220618,0.0011944328280886897,-0.09417337888775362,-0.021510123253442148
299,-0.07475397816005297,-9.438274443787886,0.036075040969694286,0.0011687207094107023,-0.09504717071491342,-0.017552091429134643
300,0.09368651825276783,-9.539148545279875,0.14847087816145907,0.00105944317924839,-0.099245946241129,-0.01130904281712296
301,0.48530461255157337,-9.613783594794425,-0.05788416642750009,0.00022460318968743628,-0.10183214478345187,-0.011310127031972006
302,-0.010556558858498183,-9.815790582727509,-0.35547028587493934,-0.0013161275497422153,-0.10514323271811885,-0.009901635261565345
303,0.1379634019751161,-9.96594152880461,-0.5817855516017915,-0.0010643249848325308,-0.1076076777510169,-0.005215441936682226
304,0.11386725529603609,-9.749880357552065,-0.7326940193706627,-5.047153825192499e-06,-0.11023920028547557,0.002736157197991364
305,-1.1888623154467524,-9.009687938787707,-0.782498575900631,-0.0001387070409384879,-0.11452240855499257,0.012278402454154947
306,-0.13443059654732648,-9.256255958875421,-0.006986198585758288,-0.0009900747012736677,-0.11798308120568457,0.014827096851570902
307,-1.3752607699660808,-9.52701820409279,-0.6470831371227727,-0.0011333596595059592,-0.11999437393890017,0.01595789015191106
308,-1.264043188732779,-9.654756618453423,-1.0064515241944778,-0.0006284071380589504,-0.12069518742241336,0.01382114376804306
309,-0.5125208093559122,-9.520851245550359,-0.6640880295745332,-4.650820150255247e-05,-0.12184162331469453,0.009299967013636386
310,-0.9307717139306927,-9.111631971318994,0.12243770206855985,-1.3968061850483278e-05,-0.12518907011296046,0.004370122849535273
311,-0.9131488996872458,-9.040801553120586,-0.7601048955803485,8.416500501318183e-06,-0.12775852664055906,0.000983600479428425
312,-0.91403941338733,-9.622663045447782,0.03152926997760297,-0.0013781574201711024,-0.1303310222170091,-0.0017065440650313067
313,-0.6524424154070079,-9.446318975618684,-0.09062136530126463,-0.0015532382855898673,-0.13341744327678623,-0.003742624210585695
314,-0.23076022706601337,-8.946304309556917,-0.6107064060458154,-0.000980798141498833,-0.13478483611894795,-0.007171327493849857
315,0.10867857220759902,-9.015531079285658,-0.2952370438729414,-0.0009418356124335006,-0.13289041559955275,-0.013179232181169521
316,0.09203480319989983,-9.271784490952133,-0.33338241883228725,-0.0009524204128095672,-0.13807245542741087,-0.01146400779413528
317,-0.026642865041698608,-9.104721951212628,-0.27047667630629424,-0.0016312038203482415,-0.1410429303772725,-0.015494782447389051
318,0.21223677902745403,-9.433417516292238,-0.056936616307996735,-0.0015183988117944427,-0.14366427044466631,-0.008460914973495751
319,0.4217294200161287,-9.728466651240327,0.17820720399681278,-0.0010688027044832996,-0.14721857970892077,0.006543867860315792
320,0.11646223929436199,-9.285906378139602,0.22166956503996163,-0.0010680488454247927,-0.15195280162988684,0.018863487458800163
321,0.0606566608567822,-9.469871904072198,-0.3188815000175831,-0.000183141982962855,-0.15191611114931083,0.011233123467272337
322,-0.11667891004110933,-9.950178791019649,0.1383508664347613,0.0006551272708442325,-0.15483688156274145,0.010806418013197422
323,-0.639186606318872,-9.26098237743815,0.060275303444478984,-0.000490385231850493,-0.158271606206513,0.008098861287152898
324,-1.1739947015773549,-8.35483774559925,-0.09126912474766982,-0.0023778409842844838,-0.16048881771654652,0.0026937231469383984
325,-1.2715662941537194,-8.593785433904886,0.49556481579056055,-0.0030100741979871316,-0.1607197082153207,-0.0028316298477679396
326,-0.8721158379689375,-8.991064380735155,0.8973130973433658,-0.0021636815354745664,-0.16329894943605766,-0.004509989161358943
327,-1.0490509392453045,-9.155040236703256,0.20450789519137424,-0.0027946977868802286,-0.1659194227076533,0.002460028906395453
328,-0.40471246246821546,-9.297324435929802,-0.17607139283127016,-0.002620248307379726,-0.16746529095083018,0.0017634926428935944
329,-0.058888383352145246,-9.167629454464228,-0.0775762734895134,-0.002329407721788167,-0.1692061107255087,-0.005018343986574768
330,-1.207599675628064,-8.638692967285357,0.2505417138531816,-0.003046147212667212,-0.17289794659821434,-0.00987555616750182
331,-0.8296882146297554,-9.18402230079933,0.2570362187074304,-0.0031230845885745697,-0.1789918223704239,0.002029840252821805
332,-1.0392760633572615,-8.986752732533745,-0.006087406525499606,-0.0024067217261922384,-0.18060659573223234,0.0016013224384407534
333,-0.7043389560821741,-8.851494793597151,0.20521509481913836,-0.0015744767609446237,-0.18251553889260674,0.0021530711920254263
334,-0.44907990681742815,-8.74332936871717,0.28941261209826535,-0.0010388576350951017,-0.1832635212461605,0.002593948630520478
335,-1.0099060253029073,-8.512292467097781,-0.3395416090678995,-0.0011114785198965632,-0.18121641508067202,6.1308407008508646e-06
336,-0.8199712495680062,-8.708475857469729,0.13248108758106156,-0.0019747796622212295,-0.18382336697034063,0.004249168973292171
337,-0.11154099389771752,-9.285820644868092,-0.6322586449406989,-0.0020832273542653454,-0.18640241472423497,0.002676640954875027
338,-0.7185481197400437,-9.36841470598349,-0.3851789563879562,-0.0015913887010311554,-0.18952703989129305,0.005312314229574202
339,-1.1165244751637464,-9.387335618484784,-0.19580560406842074,-0.0013529889896723905,-0.19235429547504,0.004860915076047259
340,0.2370528932229545,-9.767392198659918,-1.3557531939526595,-0.002121496221674126,-0.193838018291098,-0.005437681684597873
341,-0.25442781512199625,-8.812397073420534,-1.3085900719928514,-0.0029731864809645994,-0.1938498008810189,-0.002900913307087253
342,0.19787435020771338,-8.93367561592924,0.9130152340590372,-0.0031623765574274095,-0.20058688925598883,0.00843893203353683
343,1.0744357349957947,-9.313677175371911,0.24416000024530127,-0.0021043364397206566,-0.20040626607379172,0.0030026919988752373
344,1.3367092983080378,-9.56855382533665,-1.3061142497368532,-0.0012704810759730156,-0.19862010446126133,-0.008119920773624518
345,0.40418356932515903,-9.495205005575297,-0.8441435048264303,-0.0022876340567938797,-0.20302285190615071,-0.009351695803877798
346,0.9299308609213727,-9.315024816689466,-0.7690760170417584,-0.004764713834491205,-0.2081730103523311,-0.013608825097100662
347,-0.9350082501560787,-8.74909062158987,-0.19475105761030279,-0.0030012347034192783,-0.21115912197567052,-0.0038773220037901356
348,-0.7447244642070842,-8.938845559138606,-0.2851719997837579,-0.0021148457494793594,-0.21486583463011305,0.008031389436897685
349,0.055395004922602686,-9.550523684712736,-0.2384589844511321,-0.0021231863123245473,-0.2172885935995454,0.009353385980993206
350,-0.5494465342877365,-9.83467474449809,0.526557498014399,-0.0020267641306825714,-0.21685908995785413,-0.0054388188946764195
351,0.10945090937000385,-8.799636043018639,-1.1398747779322016,-0.0020375154649810265,-0.22031628394775343,-0.0037287620466311833
352,0.3294362990229962,-9.414710048832152,-0.30947713828965195,-0.0005885331943423173,-0.22152211239839437,-0.0034829763492744987
353,1.4886919354022208,-9.41729144660712,0.09544900838614881,6.176574980499875e-05,-0.21810631603545522,-0.005588320791112737
354,1.8799233410484117,-9.37792224351939,0.06069401760486982,-0.00024756216077020986,-0.21557748381341163,-0.005544165018132966
355,0.3034662522726098,-10.002373096976498,-0.13821214281846445,-0.0011159054992397294,-0.2182192177526724,-0.0004216362827485303
356,1.632520159799181,-9.375839593211584,-2.235266777475364,-0.0019465546054922942,-0.2147655017931853,-0.0012930649987274467
357,1.2689201661381788,-9.05500347765885,-0.19908278704963744,-0.0021207614020983265,-0.2158743897558091,0.008956397832263447
358,0.502935316680655,-9.025090013737326,-0.40712165369091285,-0.0031513807477090497,-0.21651830827993734,0.007624654682212733
359,-0.6037362209751267,-9.048851955687624,-1.016646125365571,-0.004166465127282678,-0.2155282408257928,0.0027055346123053678
360,-1.6067043531044565,-8.97573841061186,0.2926609317400434,-0.0040879064117378475,-0.2140292445183929,0.006511386309791169
361,1.067068185720365,-9.352129045555833,-0.6394413789040997,-0.0033352961982723167,-0.22012794166220861,0.019275479138480954
362,0.3070399711724999,-9.258876061492863,0.1964360323967246,-0.0009283267038098062,-0.21325857848401453,0.0023066802245230063
363,-0.3073775522394564,-9.424456708576443,0.588482834131755,-0.00047478786900578964,-0.2148590872155955,-0.003501247879690436
364,-0.07246451236130422,-9.501891195834467,0.18539617738970235,-0.0009942493179291199,-0.21872206685320456,-0.003614746577663246
365,0.8072165106198603,-9.256703864342013,-0.5133969777102706,-0.0008704364796504207,-0.2166715734142606,-0.006316704890831912
366,0.792041309465783,-10.012173398696852,1.0519965276917105,-0.0001625148357868034,-0.21849256825731783,0.013223410684449226
367,0.47375352435471785,-9.57028682206133,0.33619702022295617,-0.0007370926339634012,-0.21638686496254536,0.004401266602583371
368,-0.05623630574989452,-9.46229595641631,-0.2411504944632119,-0.002043034045857508,-0.21484273313504607,-0.004080888276111087
369,-0.05468573606529514,-9.742343656092263,-0.42128195840307703,-0.0034079087755476793,-0.21660941213126128,-0.002291256952795253
370,0.705254907707358,-9.89908554637992,-0.3863840126088554,-0.0038834110637743103,-0.2215743333517131,0.009707307314671516
371,-0.3408549266883263,-8.224706251281747,-0.32432436125553094,-0.001349945930330183,-0.21896953358146115,0.0054843308399530515
372,0.6132195460984338,-9.009928339557067,-0.4038367219288724,-0.0018215278844243975,-0.21868652260071128,0.010215614638459393
373,1.4168795587892198,-9.543023802246726,-0.24421463377715114,-0.0010613010952452047,-0.21867941923442064,0.008648708276688885
374,1.4532861623895053,-9.520248403275154,-0.28634308462676406,9.711725310270112e-06,-0.2179881823285514,0.0023910991102597742
375,0.7316026364991896,-9.103965091230227,-0.8091803239077288,-0.0002991097107759092,-0.21658959872589761,-0.0019000813755793307
376,0.5548849714468537,-8.409052749205843,-0.7861747221665771,-0.002882561010599954,-0.2175077200060484,0.009957326909650977
377,-0.26314299502364813,-9.271220937765996,-0.41167139424396226,-0.0023522045463527557,-0.2129685910356731,-0.0022138216036112937
378,-0.9124651305077267,-9.887925624954534,0.2775793794051836,-0.0020824471359621637,-0.21275709781152968,0.0030261250444161814
379,-1.2068511923824323,-9.651199937934742,0.6477024775981338,-0.002447666833263193,-0.2133735841198997,0.009491789839009765
380,-1.0922741601156387,-8.70393897130576,0.20482082260471138,-0.0029894537701361324,-0.21145147205462772,-0.00024056932679358877
381,-0.508763199610344,-9.234447783129788,-0.6339789506299365,-0.0021098445044520514,-0.2140058053847099,-0.007012524254402405
382,-0.5512218338947172,-8.262537792494552,0.3163990014319614,-0.0027290038844260595,-0.21810204187046867,-0.011533852163450207
383,0.30644129222462846,-8.365150151386295,0.4549945567831606,-0.0019798093112183574,-0.21856752639739557,-0.008710415788782074
384,1.3309325347238548,-8.800431881751416,-0.31699266071256893,-5.526767195484334e-05,-0.21858162879209392,0.0024118761752735273
385,1.5023387699699895,-8.805304829837702,-1.2262913367036863,0.001780793384199976,-0.22025621313798177,0.014752583398108648
386,0.14097636966390611,-9.794825788394203,0.1307951275224639,0.00024783251234684715,-0.21584018578761272,-0.006503847397482076
387,0.3508196056182838,-10.297268036778242,-0.06591708961361281,-0.0022319698946981392,-0.2177286858183247,0.003299057924077762
388,0.277091964075975,-9.77425001554556,-0.9447438014915838,-0.0036739307623704495,-0.21810418659157624,0.004857966991404709
389,0.03861311156189518,-9.383391051173666,-1.5683100117551514,-0.0035154287108249568,-0.21791573845017584,0.003777189574493383
390,0.07766278472590946,-9.968135560103653,-1.1548254268336287,-0.0019927006492099263,-0.21855029634911946,0.007909074192811612
391,0.8628570637949342,-10.232495363770985,0.5692806775918916,-0.0011458413502581444,-0.2176798348341332,0.006217998607339246
392,0.934816785196469,-9.83288570039894,-0.5506239074255013,0.0019791964852503958,-0.21678588352475392,-0.0007667918474063991
393,0.21542158210504536,-9.753420519410223,-1.2616270503639724,0.0025812641220823588,-0.2165112855197897,0.005317263899235642
394,-0.42080689538811267,-9.631683514743576,-0.8577063225266539,0.0010486980478663106,-0.2151652545351146,0.010446482813105347
395,-0.3191940653477527,-9.278289164324258,0.1845900082447927,-0.0014159728084744865,-0.21232156576526828,0.004024144545039677
396,-0.08079655044337918,-9.860058929864962,-1.2954561561616662,-0.003927456533623702,-0.2131857212479092,0.004845694623367434
397,0.03394425662579734,-8.54154259227887,-0.6033023814718487,-0.002585487828621241,-0.2108778621421791,-0.009560260606325945
398,-0.14609652490753927,-8.980527742773761,-0.17528537773099975,-0.0019995891335633314,-0.21277364001925894,-0.009678323948091355
399,-0.3649184833043953,-10.036116963164863,0.12530141402109546,-0.002014749002443525,-0.2157147148475232,-0.007301486767691958
400,-0.3196450986820086,-10.226890553369753,0.45847503611361595,-0.0017456543661354832,-0.21695712814234136,-0.009711476052322152
401,0.2614182487338441,-9.307458758161244,-0.25269529671074037,-0.00021830849342555547,-0.22051528534586862,0.012390640916882611
402,0.464789723490321,-10.269564368826307,1.5935011349122117,-1.4365576049382886e-05,-0.2200434757513201,0.00611949276378413
403,0.8952915497442187,-10.05639288789924,1.33144259931665,0.000602662805875462,-0.21743819915619428,-0.0048839521615487705
404,1.0702043590031418,-9.719528690355853,0.20373959262772473,0.0007864817492376571,-0.21606207093446156,-0.008538183273028075
405,0.544336027566078,-10.04615712885764,-0.027759018520080364,-9.439392551335748e-05,-0.21741908000501745,-0.0015024256096933155
406,-0.6040840339651694,-9.101207597492637,1.4097801937009822,-0.000924022145697664,-0.2165522384703694,-0.0023641028233163507
407,0.8118533416535914,-9.05496517243035,-0.8741322448150335,-0.003362249148174086,-0.21887977423674654,0.01137686433559013
408,0.7751156546866029,-9.935036084316797,-1.0304735126527766,-0.002527462048241934,-0.21859870922236785,0.003809474329597878
409,0.10558703348098186,-10.499919959380911,0.6322070065402652,-0.0003093288878685501,-0.21753894326222234,-0.0042750154123112625
410,0.03591207430449296,-10.105903555207798,2.1862856897420464,0.0011802808732181422,-0.2171667345042992,0.003155123462820584
411,1.0991552003258858,-10.413948650066919,-0.7329472013435754,0.002004836316339409,-0.21458964603335962,0.004853553851589994
412,1.259258522486546,-9.093051141816018,-0.8889275407547428,-0.0008988460634168232,-0.2127397495478593,-0.004296631206572359
413,1.104666541524017,-9.124696751488699,-0.5514424001388905,-0.003724326169839167,-0.2127472845062197,0.0011739307218472405
414,1.1195463838637711,-9.49089174319656,-0.8211156736992564,-0.004536158956903701,-0.2114995004568601,0.004624219490181843
415,1.3397384223532105,-9.274324887801281,-1.7676949805449822,-0.003210601166569461,-0.20826023409770755,-0.004757981546893583
416,0.5075499719682274,-9.345414222646536,-0.8820342104261201,-0.00403990159120856,-0.21084227872710212,-0.00560852961101398
417,0.3880093490516939,-9.81805629897195,-1.5151108210743809,-0.0025875021441145937,-0.21500353343777728,-0.005650844218986918
418,0.14462794275543817,-9.288005453672534,-1.2221389827525617,-0.00038808516156611176,-0.21819146052913585,-0.0016699525635122153
419,0.19284604469267036,-9.241715121624615,-0.37093618633968245,0.0010361557571374185,-0.22009714598568786,0.00500019698409909
420,0.7371438169713793,-10.261642641363046,0.2323406856274451,0.0008693454450684308,-0.2202679946401552,0.00941177413028132
421,1.0117660055983888,-9.449037315054003,-0.5242639472709785,0.00011144283141490793,-0.21676031741026816,-0.002494706504891431
422,1.0729085880653824,-10.135224628746549,-1.4415424725979622,-0.0007626648549151473,-0.21808014234637824,0.0035026433255019988
423,0.6492166529029695,-9.184810477691732,-0.9458337570725575,-0.0016000346185439558,-0.21865515389726992,0.0037734506897523796
424,0.2150080239272369,-8.11104087068076,-1.1163317955005765,-0.0028063586063629318,-0.218670556775511,0.007103809118872269
425,0.19039020311459773,-8.23039003687659,-2.655934196169947,-0.003971605253692121,-0.21842264540470632,0.016098160299374477
426,0.6618004841267849,-8.998000880989242,-1.4783889179416845,-0.0022407090341940313,-0.2166534765124501,0.006774527370215339
427,0.1599389241034747,-8.985699841997352,-1.6645811513540858,0.00028969998075214544,-0.21803441641041366,-0.007212314225607999
428,-0.3239399099527684,-9.404787191381786,-0.8156473454079886,0.001643786643206834,-0.2174715026778155,-0.0022776103931290257
429,-0.167901487687044,-9.242574139780212,-0.3153120021698783,0.002440931030537462,-0.21468631566852786,0.0035694337265712627
430,0.5690001245336919,-8.249424521534637,-0.6850999297937508,0.0021513957685081212,-0.21124614718046725,-0.00048810917783722013
431,0.20773243254304383,-8.720721119790495,0.8094810538465689,-0.003728882136814419,-0.2121283744855566,0.004538242400343722
432,0.4578278178966403,-8.864946581652612,0.29824130633512325,-0.005682904021349605,-0.21136866868909068,-0.001364708919294663
433,0.9908026007502686,-8.949351855768938,-0.5177468541716823,-0.0044948696640432,-0.20873102207086153,-0.008150908154724539
434,0.8452021046455097,-9.257263239886823,-1.3046819666967364,-0.003394267332656295,-0.2096677654594667,-0.010238053706980022
435,-0.2160685777307813,-9.765675742567714,-1.771434940539038,-0.0038038631883150057,-0.21506202960324078,-0.007918244383993083
436,-0.548943957884766,-9.694464894210528,-1.343081689623551,-0.002089575270402538,-0.21330531465631217,-0.014695079506143748
437,0.2289070599979223,-9.874896990035543,-0.6156725337276712,-0.0005483445416406928,-0.21807090748053348,0.005290706336432003
438,0.40551040384388426,-10.648866731461885,0.6206579406355736,-4.051425087104389e-05,-0.21976416589371758,0.01012393707312479
439,0.3424294436991134,-10.748660525599469,0.5043592108769015,0.0007136551114754883,-0.2186279399823275,0.004188629302692273
440,0.4794492198374549,-9.816949815689412,-1.24121339411979,0.0018329582314429399,-0.21662431381164726,-0.003014716503202578
441,0.9910003555152175,-9.955485814036544,-0.76173482811305,0.0001454825307447951,-0.21749744457882272,-0.0004850061672375
442,0.7559771532832646,-8.859784120061004,-0.9355754454075395,-0.002313570483901083,-0.21676282845415962,0.0012398802351829689
443,0.20376160325059336,-9.273422696347009,-0.6007779152934756,-0.003177288447187475,-0.21712176426708352,0.011019717280305668
444,-0.1937736041224904,-9.63909063792603,-0.4292227389043584,-0.002800232355364175,-0.21722744185293327,0.008483586253315882
445,-0.1284649266785719,-9.150951079799235,-1.053631644936598,-0.0018534925089686276,-0.21675461476171012,-0.0086135397635873
446,0.3762328923490266,-9.551639445886966,-2.7380346483468156,-0.0011005014107554332,-0.21854240231209393,0.00413565565724665
447,0.10326363373875531,-9.34429961813849,-0.8130816304529647,0.0012730995181628687,-0.2170650473790076,0.007384599197446955
448,0.18276838909087284,-8.583242787673,-0.748403424994853,0.001513612187502693,-0.21591481210896413,0.004121494484519545
449,0.43711857111531865,-8.725191844948952,-1.1390571583904852,-3.1999103740218133e-05,-0.2146633104307573,0.0014805805789071531
450,0.7737316968215783,-9.883022030306813,-0.9238187806588354,-0.0022231075745647476,-0.21261280237357058,0.0007771520389216852
451,1.5466879104437667,-9.017631530797487,-1.0228011587685377,-0.0029865445565501964,-0.2091092751598832,-0.0102806616173825
452,0.6242032570855831,-9.518960492403398,-0.9410157990728836,-0.004645951249214393,-0.21053758442941628,-0.0038353989099432946
453,0.37647804231293114,-9.043719799454554,0.5827919112769571,-0.004585730486680562,-0.21344262279597043,-0.004941046323561175
454,0.30935469960152934,-8.689070616335599,1.2886875673968174,-0.0019145336615197176,-0.2157561225406729,-0.005526911027419347
455,-0.05218990257420173,-9.063712908309181,0.22034684781077607,0.0017965197196251525,-0.21730089138656683,-6.208360310791593e-05
456,-0.6998283260208514,-9.239505290292879,-0.40203619523039685,8.16843830427072e-05,-0.22164367008896926,0.00672448138791097
457,-0.5589993662485947,-9.120458404160146,0.3694627281280731,-0.0007382741765733948,-0.22185168080827727,-0.0032563135001026228
458,-0.12415306075428935,-9.546202823936243,0.4505037129168827,0.000754032737591085,-0.22005175416046885,-0.006066861148309555
459,0.5144748416436778,-9.328977765460847,-0.12152515933696528,0.001029269463161116,-0.21823907522800273,-0.0037198847969395128
460,1.1719191031264655,-8.21004619404841,-1.1213833333171446,-0.0015173178373993207,-0.21757099506369731,0.0024568758972592472
461,1.4073794823236223,-8.045205284474818,-2.300605268958549,-0.0041174528730304905,-0.2176395462294049,0.016857304313838486
462,1.1656249113492034,-8.375770461795216,-0.8684800324853622,-0.0026251048818567426,-0.21597066043513263,0.008068077802416095
463,0.6659012422119354,-8.815211189947192,0.0017792083451679819,-0.001437285904118811,-0.21537209660815596,-0.006823854612911642
464,0.5072470644778224,-9.041173213501,-0.12791855366446014,-0.0005821816072420805,-0.21651044801567268,-0.009796949988794922
465,0.8195892216194691,-8.94607789139424,-0.6195858778550524,0.0005031805955402708,-0.21746399665288216,0.0021513004182318754
466,0.8073511561726314,-8.802464792077553,0.8953874536705908,0.0029975720828161693,-0.21143855532010983,0.003858657717615492
467,0.9708384736430702,-9.602606616844689,0.1625746641951854,0.0007192227829226742,-0.21277871332105316,0.009554279611126603
468,1.246638299835231,-9.38285814001982,-0.41474903126685975,-0.0017445316390112,-0.21145985091015812,0.0030185651330949387
469,1.528332157897525,-9.253923842075526,-0.5656398464119692,-0.003080664218479288,-0.20922528568881893,-0.003936380723164367
470,1.8740842491387295,-9.642088105072716,-0.4391621986154937,-0.003079616214075108,-0.20853365448230826,-0.004109383940004324
471,2.665642322240109,-9.37280056615919,-0.7012833501544496,-0.0030958967201154862,-0.21199499459167803,-0.0015514569834935313
472,2.6898534397011797,-8.512315361933641,-1.1479768754158768,0.0009212980130175836,-0.21213366030851766,-0.008639620220161561
473,1.526264405897376,-9.03599895183344,0.11273315634388015,0.0015388092326454013,-0.21458598090495457,-0.0019721805783938784
474,0.7060087297012271,-9.652576092200771,0.4344459403303004,0.0006680495129568062,-0.21689069054602783,0.0034634993859370303
475,0.8670465557863402,-9.662018591256818,-0.7569185747123334,0.00019566501035764796,-0.2177350294525982,-0.00010737290236878148
476,0.9262787925490283,-9.7087244692041,0.04651898447928925,0.0010585047128329579,-0.21857777640192372,-0.004338491633481323
477,1.2624575703756769,-9.285167702397734,0.6394185492711606,0.0019166584680969311,-0.21777812817870687,-0.007765628563334745
478,1.5388225349325604,-9.899189687844306,0.031402012893512854,-0.00023277249086146238,-0.21694438650327225,-0.0016154855006616817
479,1.5233038783823707,-10.09814640407454,-0.026902138030032108,-0.0028111015944316895,-0.21647190210962336,-0.001907660197293248
480,1.3786893923797323,-9.2757809628942,0.652135783679477,-0.003393633780760821,-0.21661040038378268,-0.009912066971674434
481,1.9362556541376708,-8.469971446455888,-0.6436858722919298,-0.0001188692143683465,-0.21752491848341307,0.00031743532650886744
482,1.0215986881301484,-9.839382503343863,-0.09523961872712036,-3.810901391218077e-05,-0.21595677137876,0.00968736640918053
483,0.7534569413109491,-9.261125427423824,0.1107624052877782,0.0005199280540757158,-0.21547950575285874,0.014821270023392768
484,0.25173252245510114,-9.090559306445343,0.26670197348674474,-0.00016330626997213915,-0.21507110746795943,0.012359776433193812
485,-0.5043708981918206,-9.928863472174585,0.44960919796010324,-0.0020798086244985465,-0.21361649809267036,0.0026368554873110513
486,0.11536473603603921,-9.028109266817236,0.18192722064917952,-0.0020081689210788302,-0.21011283672251427,-0.008410134667972097
487,-0.21274968781881207,-10.125906120779774,-0.3674168644609535,-0.0020532432303721443,-0.21001184763024916,-0.0015006199311123163
488,0.445004862694499,-10.60201146563923,-0.9440696049208677,-0.00380330044472549,-0.2124411900289474,-0.006562327507374187
489,1.4165395283600344,-10.175721255089064,-1.1151397353807335,-0.004358808564525774,-0.21467991167232747,-0.009285870530290494
490,1.914973295946058,-9.340252440009074,-0.631902139392757,-0.0025464311245282033,-0.2161230317658123,-0.0036790869468146183
491,1.10285527289391,-9.640532371356777,0.4988527146454984,-6.775557619354712e-05,-0.21959469050091085,0.0006070685436337762
492,0.05422393088257996,-9.417716564102653,0.25132224308473783,0.0024853446484538067,-0.21968429066317177,-0.006578625705196341
493,0.7061564115386892,-9.928545327289632,0.43358419184675995,0.002655422212646745,-0.21902750919759317,-0.014826522157462392
494,1.3803841981787115,-9.347636063895376,-0.03359257497386503,0.002218214333057476,-0.21614877576194408,-0.016208945793837845
495,1.1279033710052666,-7.797147648401423,-1.2163976089934638,0.001430439976756157,-0.21158240530375338,-0.006680138966724421
496,0.2521474076295628,-8.500263952231316,-1.5057985325337893,-0.002039019702409323,-0.20908832247659936,0.012794901002420964
497,0.6366140443888425,-10.03980479080266,-1.4961750638108948,-0.0029219286618225077,-0.20313777486773457,0.0076407589310684065
498,1.3993172621155576,-10.453316319425959,-0.6484184837205442,-0.001905634194316674,-0.19954400530904423,-0.00013195288518185345
499,1.517933708411104,-10.244282749601869,0.1515283546367523,-0.001421483487265535,-0.19817981238219426,0.0013452441312598803
500,0.8970651030797047,-10.111964700629102,0.18555286377397812,-0.0010345555004970578,-0.19689936198247765,0.011459946741561268
501,0.7604882926930101,-10.93387108911921,-1.0030775559425948,0.003971405539329116,-0.19087178143337802,0.012347937897471063
502,1.015209561870199,-9.562995741708558,-0.16506904070172926,0.002433975694157948,-0.1907415889685189,0.021423330236079962
503,1.2277787753200078,-10.001109769243387,0.230834530664696,0.002044424811095426,-0.1857039366821877,0.009896544397877328
504,1.2969582406825846,-10.385228071967203,0.38170042783694025,0.0009441723870631462,-0.18159555804661515,-0.0032318382842839023
505,1.0433450570054146,-10.192670418398473,0.2001086689148757,-0.0011691793506796535,-0.18052404843466024,-0.006163176657588896
506,0.14458153058974776,-10.995145514271401,-0.9340004542903422,-0.002055026392688612,-0.17883669406204314,0.0014604194357171595
507,0.44820762498611155,-10.756947960391095,-0.25706269484147004,-0.001235974973409474,-0.17625300603063815,-0.0024824181291453946
508,1.5111589463874093,-10.880486403455468,-0.31053042850102597,-0.0009587693984934224,-0.1767589291349302,-0.009801884843423906
509,1.482610540838246,-10.775409195973662,-0.12530431885432516,-0.0005557003857796528,-0.1764259590559247,-0.01060285300665698
510,0.17784408357746664,-10.69205471601107,0.3070967755011043,-0.0001426633420043238,-0.1746550339281371,-0.004121099640704156
511,-0.35867270561189696,-12.086096990979783,-0.41062350578765094,-0.0009942677738934377,-0.17552883278437112,-0.0015821473283391628
512,-0.38619941247407885,-10.796457891787384,-0.03439012433795723,0.0013512680982513262,-0.17055420002816563,0.011771090364065076
513,0.25106590202597384,-9.791219036736692,-0.33996109463778007,0.00019156742902790513,-0.17041757009150393,0.013580994671601164
514,-0.16098792871731776,-9.8516250453503,-0.5538354020466489,0.0009298246584774778,-0.16880419088943338,0.0077783873781294265
515,-1.3511303800075258,-10.522793963020137,-0.3380790796073182,0.0037856935477904126,-0.1648047298826189,0.003357407716930401
516,-0.46558396427423865,-9.841807302410082,0.02996569993953399,0.0020380276893738917,-0.16486150298551513,0.015221874043707768
517,0.2123823120143517,-9.554355028347969,0.8110404189443198,-0.001280343857572343,-0.1606324464508999,0.016219332765945442
518,0.82227445616328,-9.764961077333473,-0.18882437826245657,-0.0015113589462638862,-0.15691428129133186,0.008347667320426234
519,1.114166777273101,-10.181282494633283,-0.5464336336178334,-0.001005040927235979,-0.1546600279857555,-0.0031003637911781907
520,1.1172952384138466,-10.638342764538637,0.06215464970970286,-0.0007463843242691896,-0.15314497363523816,-0.012800996959951598
521,1.2058988322489514,-11.13605567360136,-0.699292767354889,0.00010498333606601132,-0.1496843009845459,-0.015349691357367731
522,0.25633658276830756,-10.608945840106133,-0.029739150294698105,-0.0007486356891552316,-0.1479655174252176,-0.008714320090540925
523,0.19230771385089154,-10.309923703544587,-0.13037034795520985,0.0008263375344431229,-0.14500953050771798,-0.0012891287029552455
524,0.3709789997464137,-9.710541800387732,0.12442565915618095,0.0016394194686115554,-0.14203041997043286,0.008829895886189569
525,0.4117861703714647,-9.164586744627414,0.6316626003863834,0.0003352253532345921,-0.1390862901658224,0.019722043562301353
526,0.283531244488619,-10.102072653973888,-0.21517100986059556,-0.00220442446733203,-0.1347982731360642,0.024770634645358218
527,0.3938293684646931,-10.453161579992665,-0.8556764279331658,-0.0012927158978101832,-0.13295837970135488,0.007212321518939139
528,0.9632916339152107,-9.78563888802206,-0.6352325343000305,0.000832599574014139,-0.1305573341420803,-0.001183463036951424
529,0.7354918019835566,-9.48981636548728,-0.5746401154656134,0.0008876567254653151,-0.12881147438827867,-0.002121189946238174
530,-0.2651894735576226,-10.082133547657278,-0.6284624712666741,-0.0010125211215779425,-0.12753031233071968,-0.0024363260329632653
531,-0.5618401799889375,-11.085579409633459,0.4720275069186433,-0.0009352610710055716,-0.12488613602788486,-0.014329793634503454
532,0.5142037644404737,-10.27910318703661,0.90322048123186,0.0007327667923355252,-0.12229190184113808,-0.01609851827408572
533,0.2411814008825604,-10.338749003968449,0.8142880454158058,-0.0013658902763001594,-0.12165971600227747,-0.008995829156774188
534,-0.024431424348355185,-10.371876818185633,-0.0428077459919729,-0.0018571551932059765,-0.11998411665725398,-0.0034302458612963105
535,0.25006041545820673,-10.079072037888821,-0.774575793348844,0.00022640988289683865,-0.11717964077387642,-0.00132074607978148
536,0.676924138243861,-9.830065819371558,0.7507904287283599,0.001022660238286898,-0.11634734987309593,0.004628565137344236
537,-0.02907134010984061,-9.774794668486726,0.3825262209804682,0.000987703278835343,-0.11551358507893993,0.010567890674888943
538,-0.38163098905266624,-9.558823580380341,0.8279713645580447,-0.00025618935863033076,-0.11400518104984027,0.010155265445485843
539,-0.6854392761257547,-9.489860727188349,0.8491675759457934,-0.0002632912792149859,-0.11185010062020516,0.009710981641638099
540,-0.9173385702912447,-9.71677288916152,0.18921587408290105,0.0009924339215185835,-0.10926430983202631,0.009731296281369322
541,-0.7063543219877632,-10.221332644549502,-0.376402029100751,0.001025408556546053,-0.10665253204364175,0.004628755452703828
542,0.09282076573575296,-9.985882478967753,0.6163313872329731,0.0010970020560114294,-0.10315074663994898,-0.006411116787636726
543,0.023698258830227928,-10.050323559196727,0.56669911532299,0.0011561346421459302,-0.09901100270726523,-0.015551693976655243
544,0.17500636331682404,-10.23350484371211,0.13372075288936178,0.0007627539657349029,-0.0959754862773573,-0.01938244338784709
545,0.5968817193459435,-10.45752741896908,-0.19917832815738618,0.000122121673817406,-0.0938281902947972,-0.017054950145674215
546,0.3088984964199685,-10.745812696345858,-0.13132973115648292,7.747625075533258e-05,-0.09041059998403807,-0.010270233039160496
547,0.8268134261300859,-9.712294324376337,-0.16840672107998192,1.617937956777067e-05,-0.08614535162860706,-0.0009474124855609275
548,0.35892399141129694,-9.68437471200268,-0.05159796198996407,-0.0013156632472515442,-0.08578423981242289,0.010291776564048838
549,-0.2897966309703788,-9.760763576310481,-0.12831190851022478,-0.0013520074096012346,-0.0858146054412113,0.017898226360289385
550,-0.5032658161374534,-9.615623087496996,-0.41983590626185774,0.0005321106967883756,-0.08517344615577785,0.017853051934324946
551,0.14444809397076905,-9.472620684314434,-0.6302890178593716,0.0030899964027118992,-0.08512096957408753,0.007744857222238316
552,0.4631273182064221,-9.559083054178053,0.38787559507803643,0.0031009897051542876,-0.08425064548191763,0.006043745588841628
553,0.8192117142515434,-9.850561018811554,0.2533257398718668,0.0024967669644133266,-0.081410158811974,0.0017600433799863067
554,0.8718787732543105,-10.32166298888151,0.03486333635425233,0.0017053321430435745,-0.07705205914137776,-0.005081040962530937
555,0.7647115776620204,-10.732833378356986,0.023573259241344652,0.0002701796434060944,-0.07206382060147143,-0.012508687808294498
556,1.0712379603189195,-10.652891924919027,-0.19103602168483239,-0.003013500426830064,-0.06773763219943377,-0.016753202184950956
557,0.6433951922974197,-10.341693828600937,-0.19766056198181928,-0.0030248917624491984,-0.06429704217106115,-0.015067794247118852
558,0.3461362380769397,-9.993074815640648,-0.07692591684289657,-0.0017747294821817338,-0.06151891310274137,-0.01207430199667256
559,0.07536152177537433,-9.769578336027488,-0.2129982192442185,-0.0014039124873607436,-0.05938720696569377,-0.009115116248436236
560,-0.09897734545844922,-9.878874281230097,-0.5430487902638736,-0.002039196310097693,-0.05812681898389767,-0.00635802514953949
561,0.03903403644162587,-10.540735923135797,-0.6122204068397131,-0.0020193872472328046,-0.058110979005327176,-0.002951486100237096
562,0.21281456578672087,-9.919488022928624,-0.22707420974764886,0.0012945846096318121,-0.05554755366444104,0.0013246338728625019
563,0.3017608641154082,-9.645593017853123,0.1918202640231505,0.0026948920365188695,-0.054299398770639835,0.005581714075225995
564,0.22721067891092325,-9.578026055833554,0.2899919626716785,0.00265740805976717,-0.05256035546921746,0.007636768577559615
565,0.09979183172855052,-9.760922299048184,0.034657848242487674,0.001376042398999597,-0.04951751700576375,0.008060952359495551
566,0.18883447012406757,-10.361318326408204,-0.32951777631593004,-0.0010875008985182814,-0.04518497409293009,0.00964585918883021
567,0.5153460562456633,-9.836914163200346,-0.44444071781580163,-0.00023638040291701934,-0.03913743544123772,0.007089016447168544
568,0.5659353339982146,-9.761820142861934,-0.2505201616737396,-0.0013236867298540755,-0.037068713189276604,0.00712611094677057
569,0.46573826261050827,-9.849814893558717,-0.18691186456632272,-0.0016880853331404746,-0.035753076998405374,0.005768417045258023
570,0.3179431746296707,-9.982969756705753,-0.2815056692779141,-0.0008289822502348448,-0.033779857942741645,0.0021480580619912485
571,0.21337292485494183,-10.160354437869959,-0.23402485936923403,5.029579052093664e-07,-0.0312244161200483,-0.0020133893016840796
572,0.26624136758527517,-9.757521488564628,0.02536800730582927,-0.0008345789997995814,-0.031223744764641653,-0.002023418731181752
573,0.3719023995352443,-9.73733478749378,0.1353711036820971,0.00028131827611005167,-0.029215915483429014,-0.0052865082280330235
574,0.1856164762447059,-9.83312961509896,0.11903026250784506,0.0010853763049735521,-0.026626241909907773,-0.005990666992848527
575,-0.06787498787971076,-9.964044682975853,-0.06484498613923415,0.0008473713875924029,-0.02404712632410514,-0.004379256122022808
576,0.2461506229463719,-10.17583993087932,-0.47685066122155845,5.5197655684433845e-05,-0.02141645373799512,-0.00514936726846901
577,0.17370127550110026,-10.027327580188869,-0.07521050990096971,0.0008677337137048931,-0.01712281883111606,-0.0017587798782567623
578,0.38040935718250884,-9.7070904718632,0.0806874780623623,0.0010771350133852368,-0.014797546486645025,-0.004937569257746143
579,0.237544038215654,-9.696734749822333,0.037803089487263436,0.0010724765954229845,-0.013528763085813023,-0.004245871429960728
580,-0.05167519009552633,-10.048086979867316,-0.1644696759615264,0.0008142445489834216,-0.012450136130894502,5.281462129538244e-05
581,0.28868212797193193,-10.473539333856346,-0.4636144703812457,4.575263387331897e-05,-0.010679486126147771,-7.436067832129961e-05
582,0.14574152355286796,-10.19471205324313,-0.030085026078197047,0.0017440551030914896,-0.007211185428843603,-0.004310350186672295
583,0.20901065464581842,-10.080573752659175,0.05531399049460989,0.0008064151654691333,-0.005109768983041949,-0.002635347168717668
584,0.17215440506478613,-9.942271076586202,-0.011737886369470908,4.138090730102352e-06,-0.001573062556511037,-0.0006064990612547075
585,0.306899572529964,-9.411104928768218,0.06678992845423554,-0.0007007727438494563,0.0023944245282693727,0.00022004108831345857
586,1.199263089768834,-8.087296247528968,0.6328881071005684,-0.002966564527726996,0.0034573681581676523,0.0014930982250854574
587,0.3367242370756045,-8.654660784967739,0.8593816543702509,0.002774672595258344,0.011133597902709527,0.0176651471716296
588,0.22395620610629188,-9.011763902268711,1.023325157438264,0.006719089427974367,0.022970180929124347,0.009281173110321641
589,0.21934709524650334,-8.475634725196885,1.3180493977176706,0.007000835687515971,0.03548257123331921,0.0016312095940785511
590,0.22528584838053015,-7.888082372064142,1.4451386951439325,0.0037995041798027157,0.048783969031025456,-0.0005009997126285225
591,0.458191827546943,-9.021976428806589,0.8336077182793711,-0.001068550263750345,0.06539624293618228,-0.005794658269255626
592,-0.1664390328596518,-9.677796365952744,0.7963584694505106,-0.0026917703199815794,0.08785313821267464,-0.01353264049540443
593,0.35850577945420076,-9.198674854165981,0.876338301497924,-0.0049865697204917936,0.10421249245698704,-0.018594457639684092
594,0.597165099098194,-8.623770778079633,0.9976927454801191,-0.004365076582491627,0.11979305812535873,-0.01879815928749317
595,0.47211372489121006,-8.594426324020287,1.0513089290594972,-0.0015123635510394119,0.1364124518276337,-0.017366752742130363
596,0.7306768849145304,-9.437588861109967,0.9023236075961183,0.00017770475369552336,0.1535446353481607,-0.020583403855150974
597,0.5417211544153762,-9.757344275175601,0.3965452295956129,0.001830754010502793,0.16732720771332704,-0.0180642446503422
598,0.9595692323978744,-9.552446729839279,0.5317696455452298,-0.0004989352470819924,0.1817650364959143,-0.010246737913305106
599,1.0458971220163695,-8.831465740066442,0.6687563565278347,-0.002103827672489142,0.19637863099661365,-0.0009782240610402928
600,0.7440277906148332,-8.404665964936884,0.6768908693092986,-0.002164513352867405,0.2112416727738273,0.008062239832428432
601,0.4997202974418235,-9.474901950253217,0.692203441908269,-0.0022521439478114763,0.2265834571794201,0.016088278139159418
602,-0.5067382049060039,-10.19035577411221,-0.17316212531234493,-0.0030772863030508247,0.2386639484842263,0.01433917228281717
603,-0.13320716160018528,-9.045785240480608,-0.2534756334637636,-0.00389779180565987,0.2480197234210083,0.011927591004680051
604,0.5010176294430797,-8.191366534531527,-0.6088558024753694,-0.0061163659757663014,0.2505513203481503,0.015785158260045912
605,0.562882154334359,-8.47586357146517,-0.9913827662376878,-0.007516723218330756,0.2464398004366582,0.018163200491792465
606,-0.4596074181612815,-9.837106564965525,-0.4511232349935309,-0.0038990828452598056,0.2386348323104782,0.003838416486295127
607,0.41223236427143434,-9.480738004042593,0.14337277286038286,0.0037077615553584814,0.22834772510624798,-0.009617378098531125
608,0.23718598531399462,-9.710012847303524,0.2753620455130652,0.004604392137868301,0.2193807959624559,-0.011693666791726873
609,0.17907810235814137,-9.931945241776301,0.34552431819839136,0.0033115401185833788,0.2182801750473921,-0.011319459241319604
610,0.32421983005477845,-9.899646006940888,0.32914096985806873,0.001620938544646809,0.22395049990001228,-0.008342297381063941
611,0.18172497058183,-9.601263045817095,-0.007528721495749124,-0.00019245598650703328,0.230640135477326,0.0013217428578826812
612,-0.001356488502861554,-9.773956730374124,-0.3424979411028575,-0.0035338906065058005,0.23409252099870825,0.0012696869038040493
613,-0.3016099368426597,-9.432223121254374,0.0016398102967044026,-0.0042096309367091415,0.23822989391757754,0.0012472709648157713
614,-0.27106819529912984,-8.92874130198012,-0.09080178729389352,-0.002388739516233676,0.24158419270784826,0.0031208355226964133
615,-0.04613875740314035,-8.902499359974543,-0.4676508673660925,-5.7650852329878326e-05,0.24364578310283014,0.004502772090519015
616,-0.05779567246432448,-10.003914694400496,-0.35417562457114726,-7.659151623924955e-05,0.24443830467024583,0.0009327869319240396
617,-0.030871928481281632,-10.192280475150918,-0.5224312000877843,-0.0008673023067075294,0.2436101676823936,-0.005865988134473533
618,-0.10436641664724104,-9.72960042603886,-0.10789705304530456,-0.0016941964160744924,0.24344616251337958,-0.007224889989395134
619,0.29350927286291306,-9.481466425759901,-0.13245793542393827,-0.002080615701247128,0.24200890479656184,-0.005349574594251904
620,0.6859434195034876,-9.582809544505821,-0.444232329875051,-0.0010966058727781272,0.24018348373000073,-0.0009065429358907971
621,0.19125173416895197,-9.734027421478284,-0.33302552294948773,0.0019809281897839553,0.2401515695084903,0.005144855901139413
622,0.5941288486788584,-8.962203965611952,-0.31089132459401336,0.0011948870223218258,0.24018960333026015,-0.0025055763666884546
623,0.6909113655175029,-8.928660203970336,-0.65328344305706,-0.00031588911930160063,0.23880001189262018,-0.0019611132985406874
624,0.2548629621044854,-9.179046271548273,-0.6864109442424762,-0.002009264872237677,0.23897613551329988,0.0015080168398668038
625,-0.34091888170554563,-9.350852246564786,-0.43026231579301755,-0.0026515674475264986,0.24017630134825999,0.000797488399184045
626,-0.3877288405090599,-9.177843637335478,-0.2558869551199494,-0.0009542013081876372,0.24003299029739184,-0.010579398131591151
627,0.8884566242870421,-9.378108304685085,-0.35389241975080754,-9.665408160998656e-05,0.23660003284274142,-0.013952907468064922
628,0.347911135961946,-9.613533079403918,-0.2520356912380972,-0.000625106631854333,0.23732205678001694,-0.01186869197629406
629,0.1249705816430202,-9.754502211021387,-0.04732565730111285,-0.0010156354838169051,0.23903024167936576,-0.008483612788416202
630,0.36379945843814643,-9.70925474889436,0.13192469928483014,-0.0013056404133533533,0.24153372562864078,-0.003784670036306019
631,0.3143981619224761,-9.459140711842482,0.11696782750142554,-0.002191350310814585,0.24586064219012727,0.00377822073460887
632,0.2429278597129514,-9.660817421100424,-0.5189722508953839,-0.0030712015446423963,0.25100184541793796,0.01054123044756766
633,0.046303337298700654,-9.18350312943912,-0.4611320927719347,-0.0018718097106473965,0.25267554889272514,0.010451375581960031
634,0.012831679121092066,-8.707075020133596,-0.5611722425563643,-0.0015966550204582174,0.2516080008185949,0.00828308020403588
635,0.13314363838604487,-8.765711018482559,-0.77812430360679,-0.00241193135728946,0.24876673564815655,0.005204250668461365
636,0.23149291856495166,-9.653927797348347,-0.6784430374583263,-0.0028957122355124055,0.24528471986974273,0.0007479651202388589
637,-0.1273271603363289,-9.481406360825007,-0.15139534866676202,0.0013314939165642511,0.2410078134441177,-0.00682735549352699
638,-0.07437881963476838,-10.22197792566951,0.04973521328183879,0.0021535960466036548,0.24235588792067758,-0.014462357250011774
639,0.5268899417512128,-10.220936794016023,-0.13276243264330975,-0.0001887633507790627,0.24300854611629336,-0.017808975167717518
640,1.0029682542677467,-9.680441386133667,-0.4123427808094991,-0.0025289359852235438,0.2435017120690341,-0.015418390115652693
641,0.4572903404023769,-9.57167563982358,-0.37059124414896627,-0.001022684549094215,0.2468525412424014,-0.007542006655400135
642,-0.07971597140486014,-9.818749512086141,-0.0742886619266951,-0.0010948940919127603,0.24938544534262114,0.003484906336853784
643,-0.09422796296954436,-9.345840965271115,-0.2596702880279706,-0.0004241340523926506,0.24631597620338055,0.00550644143182897
644,0.025777896399543684,-8.997263940607954,0.07830148256719874,0.0013624873306204907,0.24494901547732692,0.00553261931217882
645,-0.00814737726790496,-8.932956002308279,0.5164107167397921,0.001994300606549313,0.24415259159140962,0.005814756936316492
646,-0.3562511342054057,-9.041962277519463,0.18456083519355893,-0.0008135503558158227,0.240578448393612,0.006038457255390263
647,-0.14869354422703876,-9.48750244156979,0.23234569857351578,0.0034119038848806397,0.2466482127806818,-0.001572650835396174
648,0.1007106557743987,-9.528754061683005,0.02429636681295396,0.002836391961611101,0.2527252484798263,-0.009938394585364805
649,0.3642260131333244,-9.710927634555095,-0.3815113858590865,-0.0011936333707546329,0.2563192687536767,-0.01508434986221515
650,0.5640045326582239,-10.022120065279102,-0.8079570049491669,-0.005160477749420429,0.25943309656671804,-0.01329314289258877
651,0.6004498080113151,-10.18436331250789,-1.0121716009594446,-0.005232496303615783,0.264386760421727,-0.002338604256019077
652,0.3600942026354478,-9.570624634075738,-0.6756346436023905,-0.0052982036812365164,0.256577144355833,0.007875419817081073
653,0.7403696455080733,-9.538441743519616,-0.5900542129346509,-0.0005061001522271098,0.2537689423053608,0.013224724760591595
654,0.28912244706128565,-9.581958776143882,-0.5437947862918799,0.0010099227206779354,0.2505533791496657,0.013095692758054106
655,-0.37668170604602946,-9.598898254234356,-0.4954433846468928,0.00017937857183116857,0.24766863237642123,0.009977661295593743
656,-0.042045477674530936,-9.561150074213216,-0.42127536997510795,0.000899057548264553,0.24794821003231413,0.007703216941269605
657,0.12243412193097152,-8.677263102026261,0.15326907864769956,5.811862327246573e-05,0.2513936214322926,0.008529928470735349
658,-0.06080725289448489,-9.104120104423973,-0.28799942548894636,-0.002121708992221121,0.2527304164041173,0.0023119013384282176
659,-0.017025253843098068,-9.384680217790198,-0.3400399497778853,-0.001653279264226095,0.25464383115798517,-0.008282160644972121
660,0.11378015871180909,-9.610946304616556,-0.19884729318867445,-0.0004689129500275553,0.25584887976429316,-0.01735768633047898
661,0.015863549200065035,-10.225320530024423,-0.4606805839713725,-0.0017916871668508109,0.25469281947832373,-0.018583139191813505
662,0.298807622330952,-9.552886674792626,0.23686312491502998,0.0006861818462407007,0.25984379059945545,-0.0143268001505673
663,0.5691214424761823,-9.270163207335402,0.09649957834799579,-0.0003438948880937027,0.26353778648205994,-0.005161523099448155
664,0.38899068252584756,-9.466506645476594,-0.23702126346392993,-0.0020649385076933215,0.2649390684562075,0.0025248432884974617
665,0.0007021756407963459,-9.726849730810637,-0.4516882318066542,-0.002641744760957187,0.2649229359842564,0.005908421964152436
666,-0.12051519817276544,-9.53423902613471,-0.37473735150490906,-0.001173380912971115,0.2643438941854961,0.004373962157903737
667,0.22998299622466548,-9.237056858619997,-0.08241756676155279,-0.002008601787279689,0.25744678604974064,0.004387775350911998
668,0.2945112473224065,-9.15741042073826,-0.41909686441300326,0.0006610309683548413,0.2563220168944653,0.0022957967839463632
669,0.3151807382803401,-9.3273793372098,-0.33097405524637014,0.0015786977830767716,0.25532926252044286,-0.0017304190617197796
670,0.21718725963493857,-9.679021948036144,-0.06304341794048272,0.0004889811195980262,0.25449925474916424,-0.005975047484994843
671,-0.08667711034571501,-10.0149756221418,-0.19296177137769155,-0.000944403489467507,0.25575564133388334,-0.008393566356470152
672,0.06556442381294555,-9.461608350898091,-0.24077269129218706,-0.00010427102400884268,0.26093205038153144,-0.009250091536259964
673,0.046503042144914755,-9.884430899433045,-0.14682699943895483,-0.00278676386296301,0.26030953245003474,-0.007279281865577171
674,0.09426312044759769,-10.16636350016645,0.15346995794080875,-0.0031745801459018134,0.260617659930753,-0.00674211060575691
675,0.21893549513768085,-9.966239314866522,0.3665133320295587,-0.001798496424898689,0.2617456874670597,-0.0052635403611405365
676,0.38266157038582155,-9.351974500833926,0.1483878715278321,-0.0010050018154555496,0.26163418891036716,0.0012343184212896075
677,0.7860282075136429,-9.502840861658726,-0.28524258297161276,-0.0002473411699457452,0.2607133815782091,0.01313185384181663
678,0.2452194696768653,-9.559101578497593,0.027049953165889387,0.0020109838914517905,0.26639999843648077,0.010717507680641534
679,0.08849056045726683,-9.189731623261506,-0.0557585755822366,0.0005673199827912975,0.26870621342834267,0.00811775009476775
680,0.0750865388920885,-9.039773746789093,-0.2521298400462503,-0.002449627656070553,0.26963491377585,0.006644814613410378
681,-0.2953753972294715,-9.715719015600563,-0.06580298336644241,-0.0032626384438737385,0.27322451046306656,0.0031866959057399342
682,0.2935203120724328,-9.213856045560577,-0.8113823728148997,-0.004019901056206799,0.2698344036746818,-0.008695135819222207
683,0.1903392832839559,-9.346809817215966,-0.5013505497865942,-0.0005936203940664101,0.2678574019365981,-0.011913386521414026
684,0.008580702552867109,-9.645157033466276,-0.11631394256784647,0.0006057881077851838,0.2656282997970184,-0.014096138778956366
685,-0.16760206227552832,-9.940427275611263,0.011317965005133587,-0.000510907564906631,0.26364914312577464,-0.015468404804293068
686,-0.3241671303971466,-10.128829006158075,-0.18387042770275397,-0.0018593068168350172,0.2631223218923217,-0.014382080469659568
687,0.15066980894021575,-9.970797754761525,-0.2724212261550429,-0.00021074342497228457,0.26569124448733045,-0.01097549262213063
688,0.56021757219297,-9.857494254977468,-0.44323891390489983,-0.0021432806997128185,0.26604076152208295,-0.002555907531369623
689,0.42477944432995407,-9.538201395361035,-0.13444125832371065,-0.0026944223539345728,0.26703852897381686,0.005243208175883991
690,0.12529870689797043,-9.491058840833137,0.04949181063771246,-0.0018800100480854574,0.2669298115660415,0.008466701717463058
691,0.17705741695985305,-10.013235294181042,-0.4656481448557059,-0.0008551720831439576,0.26402186906826486,0.005700004251522308
692,0.2147506585361179,-8.808217752235477,0.2432748379360082,0.001634093537866701,0.26573144464914966,0.008270141283412458
693,0.004842652504384579,-9.3946114495363,-0.014791014577464706,0.0005745462251048301,0.2696616740006204,0.008618236329145264
694,-0.0804523152096566,-9.484377376325801,-0.2557467095219006,-0.0015842302677079366,0.2729456962615042,0.006018138231639256
695,-0.12924443559447288,-9.304197038630019,-0.3930574130692531,-0.0025813553382585414,0.2755536214898259,0.0017527579737720467
696,-0.25265864759714035,-9.522893969313621,-0.5420746005581077,-0.0013243088384566099,0.27743185586189256,-0.0023934630631815865
697,0.1213366324582667,-9.135205956236334,-0.5287131891922804,-0.003807792926401565,0.2731395642962064,-0.005804118729694544
698,0.2249314854140038,-9.465344392487484,-0.6023448220910537,-0.000573521419412969,0.2703155801623812,-0.008424354969611806
699,0.08758353750416778,-9.699374789104311,-0.42442118988364386,0.0005695663467482021,0.2687826382206865,-0.009921019017183322
700,0.10632552146182633,-9.559224792620643,-0.12704041108683695,-0.000563232103439107,0.268231412641739,-0.01017355131717272
701,0.5300628622039197,-9.043007723795352,0.017510665803328454,-0.0018809662203422433,0.26841212531762093,-0.00850858761693034
702,0.12375908936885693,-8.883781033489107,-0.3156269649009648,-0.0002655387251298451,0.2700933104503287,-5.420551248989502e-06
703,0.09080327612922895,-8.98663529008328,-0.3799565597263394,-7.236544217237273e-05,0.26956276538979307,0.0062976574888377185
704,0.11272703352458571,-9.40764848043008,-0.3254467650815487,0.00046308535977202995,0.2697723165217694,0.0023952998522923877
705,0.17243255904282387,-9.663508304252662,-0.21614950438361175,0.0004407900629972729,0.26973567960507294,-0.005029511159033401
706,0.3027760284541448,-9.423535631276183,-0.109999670249809,-0.0009310151253071,0.2686067589988147,-0.007588945009526128
707,0.4109605270042037,-10.019118278260503,-0.12578218259802398,-7.965266156178253e-05,0.2720674277527786,-0.010136842536539915
708,0.37419449053777065,-9.779142055302483,0.09940605299472194,0.0007523900218806443,0.2777469654876346,-0.00976190488783912
709,0.4356294473908735,-9.433381646672995,0.03495453981116864,-0.0010069592252237426,0.28111410676486714,-0.0052963259055551675
710,0.482238346601515,-9.394974605487635,-0.4001157222679762,-0.0034617307937056955,0.2837632287343962,-0.0010224807980880408
711,0.41310928252947465,-9.788103802894545,-1.0047375440439983,-0.004298377583858455,0.2867751560941664,-0.0008461727654517373
712,0.6681505664415393,-9.615387245292412,-0.7171966858681165,-0.005143888276906461,0.2798697433989032,0.0008657806730008632
713,0.6015862961209033,-9.541672054745169,-0.16140298465098946,0.001249483443555805,0.2766955915171627,0.0026510648392690955
714,0.5808010026474202,-9.451255754659334,-0.034550839499899656,0.002046531877112888,0.2740975134832877,0.004891703891315678
715,0.5394436239594638,-9.438953928243633,-0.19616612700140978,-0.00038973546611027586,0.2724517287533649,0.007727802144482637
716,0.345335435538349,-9.556294622837024,-0.302478651300318,-0.001142054389512407,0.2725425236882715,0.010303868002751699
717,0.030082869627850894,-9.392120601082594,-0.03444377710803231,-0.0011199923504062487,0.27342114781284044,0.0069054224116183
718,-0.016384421079394182,-9.267235561434962,-0.1508092839701445,-0.0025327390046549756,0.2750661962173532,0.0005322913459851893
719,0.17728895454204802,-9.463675093220669,-0.519798856739066,-0.002111650324143576,0.2768028029505456,-0.0020423774076922703
720,0.40437339551823026,-9.52743358755913,-0.5470631247281803,-0.0010560059704404741,0.27756890101904386,-0.002979536928858139
721,0.4054646999947646,-9.221961835158394,0.16139321937945883,-0.0008336733475722947,0.2772488467761005,-0.0056268960056929645
722,-0.13839492846252077,-10.202861680399021,0.5646937997985331,0.0008583106387991695,0.28071299808758465,-0.009014227952479033
723,0.27141069078505886,-9.799471356988098,0.008209826879802123,-0.00036287827244142957,0.28267627239090687,-0.013172801834924643
724,0.2854460360439566,-9.539669870705051,-0.40832793950455926,-0.0035813807684609953,0.28495470631421094,-0.015873711439199602
725,0.16463787578664102,-9.614704414725363,-0.7973797876721971,-0.0064952519559569495,0.2872271260874834,-0.01729593830615318
726,0.2920660246050232,-9.8726549411897,-1.2835465702944737,-0.00669458311561845,0.2880841589924684,-0.017828704368022502
727,-0.006542772297716784,-9.921441917984481,-0.826802858693596,-0.0025289740129571686,0.2828987617571984,-0.01606332341619614
728,0.12590378205765196,-10.300952360615547,-0.25183297829793816,0.000870636164925743,0.280714038332975,-0.009104805927952892
729,0.482608540731179,-10.11466416508185,-0.26002206140010437,-2.3453015178775006e-05,0.2778780865812088,-0.003064647366246076
730,0.544048554493168,-9.687404112600602,-0.4153359107651906,-0.001512257958384384,0.2763553999138658,0.003945301168594852
731,0.03416029806266995,-9.438166192969902,-0.2610719636367563,-0.0004464981579385556,0.27780737339918243,0.013699998098635402
732,0.008705121933250806,-9.043227563566713,-0.3215502880824523,-0.0029968186819923,0.2777761762759999,0.020461626834993786
733,-0.19605579736386558,-9.242941418160646,-0.5147573017396117,-0.0010854979118150433,0.2800557181650287,0.01979308348722445
734,-0.04345819178270438,-9.332577818912874,-0.3540865440120444,-0.0006534082661396666,0.2804914316008057,0.014347107002076153
735,0.1699728793676977,-9.297709748536693,-0.10579616741125195,-0.00014891919327432576,0.28033489523073724,0.004766651749800225
736,0.11310636759804076,-9.303512007259243,-0.10412441816997078,0.0020983751809268442,0.282169312496439,-0.0067039411548968815
737,0.0014952107228955024,-9.71226569649116,-0.3452409224900016,0.0021197920221224433,0.28994571674254976,-0.010126238785840872
738,0.4350971958905917,-9.430887693097622,-0.86780833370091,-0.0015555265840642124,0.2939108330058548,-0.012829532341026021
739,0.1528451933530739,-9.54027812475238,-0.5381287721880725,-0.004134921334071576,0.291893207996275,-0.013783674074445938
740,-0.10779910311028156,-9.645912566061801,-0.3188867216797354,-0.0029076591830410293,0.28738258582977366,-0.013426026924353804
741,0.2810024275513788,-9.432435248050902,-0.8346192798315715,0.0017908504818490577,0.2839234949973225,-0.012045347393746365
742,-0.004389258668912183,-10.028634835592566,0.2676769867668678,-0.000742533945074233,0.2804558656554246,-0.007819387314892467
743,-0.12427673003612333,-9.478664673527463,-0.09091742681880234,-0.00032609977197700174,0.2800352857997266,-0.0013077087041613133
744,-0.15192512666891472,-9.423596416877714,-0.05200363698648948,-0.0016431206561119572,0.28112202422663113,0.0016715081327103466
745,0.1204207950763202,-9.517632974910283,-0.0641951057484965,-0.00318626278614924,0.28350944695797636,0.003484477776559634
746,0.6462058840627005,-9.292288116460066,-0.5482658063765729,-0.0030871509009272177,0.2864623990867297,0.006158160961846444
747,0.22472691007355705,-9.167494980030494,-0.2515379123447764,-0.0022409950099684358,0.28647003166045104,0.004470059563203921
748,0.09149660887490012,-9.296733268527994,0.20338876378125997,-0.001394001582219325,0.2849418395109045,0.002787987187178244
749,0.025004124050865308,-9.823513394297759,0.27829901479205676,0.0005244583666025927,0.287097118522736,0.0011056228502611266
750,0.09922711998675322,-9.976415539300564,0.09144330041923077,0.0010541899481397022,0.2907244649430353,0.002400614129659891
751,0.28220356972597804,-9.37538134776306,-0.16154664814009495,-0.0011163745267698032,0.2934189344862073,0.005994733295658423
752,-0.02374806644500284,-9.617955226283172,-0.4514657600329674,-0.0010502691159723111,0.2969176364315605,-0.0042035870818793565
753,-0.05916086566426107,-9.4773454488073,-0.5513602600520315,-0.0025223445885594834,0.29344477951106673,-0.007564000523986809
754,-0.01805890487506228,-9.704224774922857,-0.3844296796147411,-0.0025739024099797505,0.28969124815547803,-0.007907947273855145
755,0.08824489308440585,-9.761035042398266,-0.13657608988214534,-0.0017415940022245096,0.28692171578004194,-0.007375745692937902
756,0.13342599347826511,-9.326464289286651,0.003395991390573394,-0.0009122096374419236,0.28544530454144,-0.006363245757485801
757,-0.5372199930085252,-9.55636627490695,-0.009361219006627739,-0.00012141821616217294,0.28541142136625036,0.00043851011416943023
758,-0.09781394033383295,-9.41988706832501,-0.05731399337031561,-0.0015307644152237475,0.2869643084122838,-0.00041355515993603286
759,0.4309277318850551,-9.439768295156934,-0.17213052213830882,-0.0026701706251755154,0.2881228474070142,0.0011742959095506563
760,0.36917508585636916,-9.581908514066436,-0.05957919068558283,-0.0025132168166178623,0.2889785638287713,0.0025345343211543112
761,-0.35569592120792265,-9.703539099282855,0.27746061727321925,-0.0009568576181112545,0.2893292925217519,0.0008544517011292553
762,0.01878888146535792,-9.582427671001755,-0.3385542691054583,-0.00011045975900861656,0.2867500551977434,-0.0008247044828645584
763,0.661043206981853,-9.559626719410216,0.16122633011962573,-4.2055276186317946e-05,0.2895918744961171,0.00129363340750385
764,0.7942172251754528,-9.178990232256048,-0.006827260086956111,-0.002244609548622504,0.29246259913720585,0.004910974340940195
765,0.4739605885306863,-9.066732431182567,-0.48997357124938856,-0.003904483626838713,0.29609230666559183,0.005018773892997937
766,-0.012643542131627411,-9.552169879713526,-0.716436591232068,-0.003286902063450424,0.2997044802973671,-0.0010594047000239742
767,-0.060127236065363646,-9.533003251638984,-0.4000974164446354,-0.004077214745032423,0.29456461978036846,-0.007842473271979506
768,0.09033022408096325,-8.889555473296916,-0.020305930144542253,-0.001149985746785978,0.2909369587065171,-0.00537096971820646
769,0.1516074486918661,-8.93273993852181,0.08092428726398374,0.0005446884312749156,0.28917929008979737,-0.004730897778392331
770,0.053593691383668096,-9.27096996822679,0.1569438606994421,0.00037195375316344405,0.2883246121154589,-0.006268763184884036
771,-0.1507789340617947,-9.4491407084287,0.27736055328836956,-0.001158267916442978,0.2880118271766838,-0.007632014371936306
772,-0.1307085067289783,-9.556355231835255,-0.34139385467413336,-0.002027592559977479,0.2905744611695458,-0.0025574028193695105
773,0.0031556602763665315,-9.206651380568005,-0.5411310988925727,-0.003594096855221358,0.2924001890173398,-0.006739574383176756
774,0.20757006965919023,-9.541118281601598,-0.5858054505695269,-0.0030702198923033526,0.29241493913020067,-0.005674217116719657
775,0.23372861257162061,-9.726159858037512,-0.3369336023393549,-0.0017650141531692204,0.2918877220263615,-0.0021078773904138785
776,-0.07517577582412278,-9.246415411584085,0.22234400777313645,-0.0009406246780047871,0.2927094918350056,-0.000372067229097346
777,-0.5632298258439717,-9.263784908888333,0.6329807679161709,-8.941827929244525e-05,0.2978942048117814,-0.0029267232370268448
778,-0.06876861312521666,-9.599585941852554,0.10054419494213158,-0.00230340311057574,0.29913690096856727,-0.0024087277303956227
779,0.240320434081294,-9.836092726263992,-0.6659158907663086,-0.0026096291383106082,0.30227439695415326,-0.0004494445062811558
780,0.22604280667142818,-9.851411717966862,-0.7781101369940552,-0.0035009057171672417,0.3037358494030403,-0.0003741019795988269
781,0.05212319172523324,-9.634757819653032,-0.03169303624202182,-0.005588846255107777,0.3007408188707652,-0.003367288616156786
782,0.368844325489287,-9.356276270633638,-0.16994465722357843,-0.0014058499329364887,0.2955678710537132,-0.0041478991836306385
783,0.2461974951730153,-9.42983200484397,-0.34127227063189086,-0.0018295746237884385,0.2911728453837791,-0.0018797189257859048
784,0.3290912060029076,-9.443371542040794,-0.06184122156243824,-0.00043095852488877074,0.28801555640430593,-0.0032615876711309627
785,0.3251840202306999,-9.536038081377736,0.05849697691564634,0.0006890384344838869,0.2875879207613781,-0.004166345547368346
786,0.06880509055152893,-9.721369645486872,-0.29939719063384446,-0.0004400115935425828,0.2901653192472537,-0.002068497117769696
787,0.02230044185355169,-9.492679290331981,-0.34181378213310604,-0.002946283549315026,0.2927542038415833,-0.0021075400382157584
788,-0.030498089698999042,-8.991621647589326,-0.20217087562228608,-0.0023890377205370026,0.292961105763588,-0.00132212577130918
789,0.16217437023442907,-9.168032590898761,-0.2568256865999741,-0.0009814182893259416,0.2912385100878794,-0.003291029625272829
790,0.22720680173927513,-9.309705990630185,-0.24054900673051557,0.0010623866857431084,0.2922889153227266,-0.006665793285949174
791,-0.08487673022744065,-9.007599268696984,-0.05936410441603235,0.0025847882364589316,0.2977462140278727,-0.009191370752099715
792,-0.5572660564753146,-9.107592739577326,-0.24972710074541996,-0.000767634413682058,0.30032746994520976,-0.007543109144306441
793,-0.0008088418122058627,-9.4511796450775,0.177316793089206,-0.0018057397690632688,0.30449993460118696,-0.0066541852253090665
794,0.2932082874521974,-9.914462251257389,0.12035129456005376,-0.00377745109296881,0.30358286845312055,-0.004683887478832524
795,0.2030930686333316,-10.109995740650927,0.10704709444758934,-0.003813431093469146,0.29976348687804133,-0.003562807798157908
796,-0.017833719949666732,-9.831027540343742,0.39236563000410707,-0.000906360728069236,0.2959032176045162,-0.003919098935186434
797,0.520641159711122,-9.341476572105842,0.12829238448779187,-8.219136628582995e-05,0.29416939258529423,-0.0022049742681574795
798,-0.013884380792865303,-9.738756966111932,-0.019505469910347364,-2.5859917654916814e-05,0.295631888473632,-0.0012971384197640557
799,0.0741899970464793,-9.49315400215994,-0.33760929134208095,-0.0017108451942165895,0.2961989762095406,-0.002766484539073111
800,0.21881702456889135,-9.480352337675056,-0.5100450710490794,-0.0020768774611231327,0.2973035078117436,-0.002784281753058973
801,0.05091210729012802,-10.06595181357027,-0.38939091736748294,-0.0003330498487695967,0.2992605591607629,0.00017276009123753095
802,0.19532127956279413,-9.849988588941162,-0.35161982780822015,-0.0020094568128038934,0.2983957284259866,0.001005136469465539
803,-0.05578836220707961,-9.589844339694084,0.5439928807292759,-0.0013835609061479087,0.29831031301864486,0.005803487307672964
804,-0.14365573149616712,-9.43854923755244,0.5005770414243499,-0.0011151816059196415,0.2994827196747099,0.005703884910523647
805,0.1968920923591126,-9.476618239035966,0.007300867146225437,-0.0014775376364693435,0.30083463771753893,0.006071386461054559
806,0.7459941326663881,-9.747114802203331,-0.40899260450595815,-0.0023300284561375124,0.3021538020795651,0.008608773197593142
807,0.22220493154166887,-10.25190811160996,-0.6209572260989901,-0.003132216409626432,0.30562827138639875,0.0034932221341726116
808,0.14422546950671433,-9.57463965289633,-0.3268623255732692,-0.0031604762176056615,0.30186500462300725,-0.0007961468406524037
809,0.1622255014088168,-9.261778638979315,-0.27101924519571136,-0.002006308353918494,0.29815135539061927,-0.0026951323879997467
810,0.2504873361946397,-9.443703299530927,-0.23769621945144098,-0.0010544992836038045,0.2950798563941747,-0.0035222563702780223
811,0.33842667681614036,-9.887990374632329,-0.03786582981473502,-0.0010487676445874315,0.2929749949218815,-0.004363630535357431
812,0.19010132360044882,-9.844755688724218,0.2912446705174202,-0.0010432332762555444,0.2929791449380811,-0.005212297514226113
813,0.12833611253661337,-9.620191494083617,0.03963508706281392,-0.002606417593773883,0.2954009065451523,-0.005294108730639694
814,0.08496367632978138,-9.42500387749671,-0.2793702196575516,-0.0031495906462163823,0.2979733955512754,-0.0023959769937026243
815,0.19562203420930835,-9.358153288402734,-0.33761076144544855,-0.0031773355473915608,0.2986538639410996,0.0018460784642412315
816,0.4136221351434182,-9.455274525761372,-0.039180202010674146,-0.002571034638417101,0.2977236396985513,0.005302956520629844
817,0.27117105334220937,-9.653530923835662,0.28093737087057435,0.0007698353387731046,0.30030782354427404,0.005334138441276494
818,0.02759134131633252,-9.547459825915395,-0.5493576349375536,-0.0021587387192653702,0.3012812698744712,0.00449788948507663
819,0.026004475169053493,-9.254267574268933,-0.7918528256965304,-0.0031782191263299724,0.3051314742300667,0.0018662568172258841
820,-0.05307181946085612,-9.201750754778203,-0.8278411869168354,-0.0035293612101213534,0.30879799959480475,-0.0007978104266457091
821,-0.26540499183850874,-9.469840712154882,-0.8029960872937799,-0.004036510567039281,0.30854583737308916,-0.002012595858729677
822,-0.02700747693408032,-9.399431957836052,-0.03279803413799626,-0.0032061564424231345,0.2999183861452515,-0.001124083001161045
823,0.15510399429334393,-9.344338051188718,0.2328095820736628,-0.0016095755162364414,0.2985888046711867,0.002948727438330817
824,0.18138837990303286,-9.610433673599422,0.060885738229327996,-0.0016813637019069203,0.2989186836112791,0.003659900139471555
825,0.2215919434795433,-9.721908295009762,-0.3590270299314773,-0.002877410343496589,0.2994066091146544,0.002040789279108696
826,0.2818199547663262,-9.556994037863491,-0.6287338570833877,-0.004043405149463515,0.2995875006420504,-0.0003550895964154977
827,0.00475015304988597,-9.781360692882258,0.07301632279534974,-0.003197335161615855,0.30045795889068877,-0.0020453777287901915
828,0.09533922116847068,-9.835798782771217,-0.2718978985115539,-0.003146029754227401,0.2972466131305137,-0.002929037170652833
829,-0.009639953662962143,-9.755503585750887,0.2878714949616522,0.00034791367465457075,0.29740054378258396,-0.0031452107958408106
830,0.00302095975524172,-9.572519597190535,0.2959199447606327,0.0016231472576528868,0.29873954741904446,-0.0035144443436426636
831,0.23857771597327898,-9.363161727571239,-0.6218492164401346,-0.0010527045894705152,0.30063236778366237,-0.0038962748398372496
832,0.3183699026866545,-9.28788499726687,-0.43754307518813296,-0.0010643430898234624,0.30665982381303475,-0.002219015246251282
833,0.28848537105944105,-9.449844044025005,-0.4692513311934657,-0.005030300406188275,0.3061498934924061,-0.0021788698366493843
834,0.20030601852546848,-9.449866890435699,-0.5671392589584254,-0.004539095159749169,0.30346737588631223,-0.00038027561393061567
835,-0.019407843230910132,-9.421545549308387,-0.4203560382359714,-0.002410982535077557,0.29923751234521756,-9.090055940443964e-05
836,-0.16565476684828337,-9.446349241294254,-0.06447528079017689,-0.0007253847045239391,0.29459576188233294,-0.002258789722812295
837,0.5030331291668757,-9.457940829239496,-0.17145103506084802,0.0009505606682416993,0.2920125125953226,-0.003079252297317927
838,0.23702079768460083,-9.609948195175152,-0.20134062875980485,-0.0005564714471772458,0.29271715041912927,-0.0039485402338912436
839,-0.22754505975642128,-9.476169470140707,-0.2575256884034863,-0.0010500737154196856,0.29600764775815913,-0.00421735025092548
840,-0.25516245708500285,-9.261644791341553,-0.2622980071454106,-0.0014302496340593486,0.2987512678384182,-0.004231399314849957
841,0.172775946950379,-9.198223194143079,-0.1212063092324294,-0.0017512908935041077,0.2990824144896564,-0.004236398874745792
842,0.03668865918155455,-9.521896515557858,0.2866221578610525,-8.018160195741826e-05,0.2973570308223788,-0.0042103689879322915
843,0.10048122474199117,-9.66302302420849,0.23521457027571868,0.0007965430134487325,0.29975853698194593,-0.0050197253050571575
844,0.38837514744138857,-9.103990984095931,-0.1850230862245208,-0.001934033824489156,0.3029407252393441,-0.0017101759075934969
845,0.5778896531159764,-8.705795920445256,-0.4878628492012758,-0.0034512029557457456,0.3071668689600432,0.0010180758647532014
846,0.5171626648350307,-9.029612012192121,-0.47442496687599145,-0.0023045137061168453,0.31053842128459797,0.001020189741877552
847,0.3487668842865658,-10.082692846690627,-0.43519125790948987,-0.0031392730648663186,0.3070902025792336,0.001022086332285214
848,0.19728347615962052,-9.540842706890828,-0.23062683868977032,-0.002344245853622204,0.29952349509562215,-0.003016260611876511
849,0.21868577763838049,-9.64102343414663,-0.17454274125571512,-0.001504316375040111,0.2972797854086444,-0.003624147234715035
850,0.2670854279456347,-9.74456429147198,-0.13253555176468454,-0.000666722870186372,0.29767845102156887,-0.00394156565907087
851,0.24434529231885335,-9.570215723026685,-0.12195795412208282,-0.0005345304436256461,0.29817918692245027,-0.004918522232282509
852,0.1444826782726707,-9.601233322490147,-0.44130579195617725,-0.003051548537106613,0.29731088142360984,-0.0032483051750863087
853,0.339762503168133,-9.550679930238934,-0.291672655209706,-0.002361703033717246,0.30058395106707897,8.248923532247097e-05
854,0.36249655471431175,-9.388551302719772,-0.4176584829378778,-0.0021409121252495356,0.2990940639778531,0.0028796458696995937
855,0.22079177875969777,-9.34122079159063,-0.2894285758579885,-0.0013703105583491963,0.29724303503240496,0.003863343899099334
856,-0.11276569858879196,-9.499962149615893,0.1400538060865468,-0.0002404126343555833,0.29761369471686466,0.003942474725421834
857,-0.7638307803604729,-9.745596759419682,0.1085450306243197,-0.0010977985236006772,0.2993218024368277,0.007321948471287358
858,0.1720793113419241,-9.151174206502088,-0.5061594962932733,-0.003532820830103171,0.3010600775106676,0.004938396091276711
859,0.5468688732357172,-9.273138587071845,-0.6800578925182599,-0.003637526761387691,0.3052628814062446,0.004202925303256128
860,0.4566768226932797,-9.586967512097914,-0.7812345645617378,-0.003965334889804879,0.30600268745736947,0.0026062593655331633
861,0.03880696052792572,-9.757609754406086,-0.7342352389306999,-0.004330449163503929,0.3013309627976968,-0.0009636492789447137
862,-0.6470142271127699,-9.82963624317519,0.28101110956259623,-0.0001260136551171591,0.29531259940950966,-0.005136753244343256
863,0.04136424488596868,-9.458008095990397,0.21618783421237375,0.0007994390087240214,0.29428726502965,-0.0036028229698137
864,0.3088833911850254,-9.28235507801568,0.014779894906452082,0.00040740113682683095,0.2952730731801266,-7.688734692714509e-05
865,0.302086962615314,-9.311125980833541,-0.2900893024408693,-0.0012228403784560666,0.2965871089485909,0.0009400812812072
866,0.17821955525560915,-9.379583838187385,-0.4584751653785593,-0.0033404118567149847,0.2976551822277569,-0.0016359914092083567
867,0.016677091357372456,-9.10469718236952,0.09814869376650856,-0.004159046774456891,0.29939234785457464,-0.004198780256227674
868,0.5360957260637028,-9.039301782670075,-0.375891837008835,-0.0033944908891713034,0.29606024454855284,-0.00011316793410636686
869,0.4145799325248097,-9.191795634648402,-0.31506886882624485,-0.00013461521657675895,0.29823319189728464,-0.0007560259490604346
870,0.3065321684248622,-9.609126653241686,-0.3245089697986324,-0.0007044605486598459,0.300098996056307,-0.00331627217474356
871,0.4590568775299857,-9.98296936312712,-0.6834889238580846,-0.005025820972844447,0.30042082622707555,-0.005724382034431354
872,0.5036034357564692,-9.511773437389659,-1.1632809752235582,-0.004180068387362321,0.30474017843321344,-0.007427393057113671
873,0.4515505171401413,-8.835444062503885,-0.4587961912687406,-0.004149798222157372,0.3056901671358347,-0.009127770100476253
874,0.1863099942909458,-8.803995555560832,-0.1797266472062613,-0.00414242694852017,0.3021648706958313,-0.01019526804135112
875,0.0352360202313385,-9.193736166552615,-0.24356842651750332,-0.0029529774019349205,0.29822091905976134,-0.008578392816431822
876,0.04897163637931601,-9.609031420355528,-0.395631204056979,-0.0008464786796249651,0.29641224861260823,-0.006055723354146458
877,-0.09005278709677768,-9.458572875104082,-0.21005779682485834,1.0665317186154017e-05,0.29729020138177076,-0.009444139515783134
878,0.30793162092875503,-9.235617910537655,-0.3437577369136973,-0.0016157003409425857,0.2939236074192988,-0.008686738056975608
879,0.1407553671481208,-9.644350252954327,-0.27267873063654724,-0.0008486030454061819,0.2942524184029036,-0.00782994481277217
880,0.11041035715460358,-9.867475842496589,-0.1011557026949888,3.1751899613045558e-06,0.2955504491790955,-0.005747685973610038
881,0.35352059511344197,-9.604950937632985,0.062418596530920314,-0.0006039651800619125,0.2953918630402921,-0.002160879914205718
882,0.2639379560425787,-9.223312344810992,0.11909860753180347,-0.003137354803575259,0.29192422980166527,0.0020658770350508527
883,0.16857628406541456,-9.136349317212922,0.49189939286602075,-0.0023790656381327893,0.29609203266102446,0.005470021092256496
884,0.3906698172387747,-9.447628351184967,0.004504485100169597,-0.0027890907591633365,0.29658942020245943,0.008235541957035157
885,0.4180183226362069,-9.46124016610219,-0.4600627340590976,-0.001605371757938043,0.2990685730086427,0.009551571145445525
886,0.15887496315817204,-9.144617312239223,-0.5293451036449914,-0.0002324729941635056,0.30449625690534443,0.008545860610650114
887,0.03355717298256397,-9.266633218665408,-0.4698737665524194,-0.005216389294732051,0.3079707430119953,0.0042288171624282524
888,0.1290944570913046,-9.340994210625018,-0.19467089615479463,-0.005252072417065215,0.3012251048456212,7.304544349610604e-06
889,0.3019188161389159,-9.686618532334176,-0.2183218540489958,-0.002786545626250815,0.29687003121306127,0.00019377059078407873
890,0.25222750633022667,-9.655762612886162,-0.17295558210185616,0.00014625062079207237,0.2942619680219717,0.0002755265666388124
891,-0.04472701475107821,-9.414122578596748,0.006745493326520723,0.0016631518535091083,0.29254582334673174,-0.0016020955753945868
892,-0.3007473438989027,-10.071300866749453,0.02897685135683809,8.973462503421973e-06,0.29083477089856574,-0.004162997249311029
893,0.04603377746279866,-9.038011398071394,-0.001764536398958628,-0.0024948339038159306,0.29337943936206684,-0.003384809542254548
894,0.27252988814307816,-9.150465036220933,-0.38270083982733427,-0.003771623589106141,0.2953208803591393,-0.001928187560001432
895,0.2974827625936725,-9.375077450329186,-0.48394339861969266,-0.003365131482458961,0.29535280017853044,-0.003151299918082329
896,0.21910918096043439,-9.44959032283934,-0.14903700102599685,-0.0014692638048650062,0.2944823182287459,-0.006544096845577236
897,0.32484606642110375,-9.995989847376375,0.2548105497657365,0.0010421444103530756,0.2962093071797612,-0.0073694273984426595
898,0.3356876953926493,-9.68578772305108,-0.14336650522026756,-0.0022370180024685092,0.29624277063320004,-0.011633334488237916
899,0.3383093264869334,-9.487402462069017,-0.6517997367287894,-0.0018581219156742087,0.29944381492143285,-0.009560294193733502
900,0.26452130863299245,-9.334175074984504,-0.8786950472956765,-0.001874718843618681,0.3003117212540297,-0.004897879296220819
901,0.15314341041649873,-9.332498023749066,-0.7522207747542753,-0.0033655259429570643,0.29685540632234947,-0.0008572051257780659
902,0.15608054612374014,-9.777611389154634,-0.5329796367870252,-0.004205577701894784,0.2908161677030549,2.303658146773747e-06
903,0.19710724732819634,-9.297368445216847,-0.22401198097409308,-0.002591002777651265,0.2881822609897836,0.007655079182997851
904,-0.05010483375760384,-9.40244390163343,-0.10970335196487571,-0.0009329071897670436,0.2894567781827063,0.009592871769719024
905,-0.1380984294588134,-9.628581928746431,-0.17520066798250838,-0.002170268853851715,0.2894697936648162,0.007882575449751968
906,0.03874611498073285,-9.627333894437179,-0.35532255584318795,-0.0048618033160506904,0.28841170526552573,0.0044582416374635385
907,0.23918057660935535,-9.17503860873099,-0.5353329051707948,-0.0031698182910305643,0.2918732089315145,0.0010709180569270446
908,0.17064741010708717,-9.472622990256882,-0.611992209265343,-0.0014767223945995039,0.29188847344857655,-0.0023052753230516283
909,0.04543394522467033,-9.195932991127012,-0.23058177420207063,-0.0004286140261682196,0.29059490588456366,-0.003131009049173861
910,-0.13121628444400082,-9.09987262068481,-0.00830614863511214,-0.00042759929518972246,0.29060847786295924,-0.003984386057311828
911,-0.1855698739812929,-9.370657846985644,-0.22454355574897927,-0.0010443021913450375,0.29321335098273515,-0.0050525680312611355
912,0.2143046755572469,-9.642150266663725,-0.8267008774830144,-0.001061384079620583,0.2983592013360283,-0.004233160246953765
913,0.38025284301638695,-9.61111166134249,-1.1302194575669713,-0.0035563453305859816,0.29836951606502793,-0.005960591910488731
914,0.4641188842326551,-9.550380035505714,-0.8102545268075001,-0.0035190763440491064,0.2951280182070293,-0.008929064285252471
915,0.36107936509843974,-9.684967705786828,-0.5737929765761556,-0.0014096269390861476,0.2890732925299819,-0.009700515671600287
916,0.1975077581660865,-9.874344556872284,-0.5131431527412136,0.0014887692673796996,0.283959492959139,-0.007514105175260746
917,0.3109148262777639,-9.643111378641866,-0.158834656676313,0.003071574165295398,0.2865149609526541,-0.004128351067674763
918,0.4039241236737421,-9.284039341616133,-0.2167322980353246,-0.0036162647245162748,0.2873782032035107,-0.0033629191646531876
919,0.2997068898564515,-9.138863443959192,-0.09994151918774857,-0.003975324856569978,0.2901934487282806,-0.0012397092504890384
920,0.06991438875111397,-9.29456778712272,-0.12627552202118292,-0.0040239851128608655,0.28967542629952814,0.0013084513504966607
921,-0.0849610123285114,-9.474978374229968,-0.3347855702797224,-0.003965837099390243,0.2867020460596498,0.00320297606687382
922,0.14304979511751506,-9.091120943463563,-0.5088281671434673,0.0009885112126974051,0.28756981289838907,0.003269081809183488
923,0.23361147942412547,-8.865829893634546,0.09494764968347014,0.0009828155070330112,0.28929051261687727,0.0041117843786604895
924,-0.1358716524894261,-9.064294593621314,-0.12030731354345964,-0.0015440120686381297,0.28971757482876886,0.0010467586872305898
925,-0.1031405545912901,-9.383697072404834,-0.28298302030236483,-0.0022890015047531045,0.29150628040513676,-0.0027773246755727734
926,0.293446867786477,-9.71970451292863,-0.44065676792955477,-0.001701408426601434,0.29383142007784013,-0.00572600347976281
927,0.259320388308689,-10.112249692991318,-1.3713256288508229,-0.004159420747126894,0.2929540829971769,-0.007425630075998648
928,0.16924822661995215,-9.195982257964754,-0.3871167602541482,-0.004159178778982961,0.2903672130994471,-0.00741668486135018
929,0.09904023029202544,-9.417700265968541,-0.21215126532496534,-0.0016133957251459328,0.28578815376335165,-0.005420251005762856
930,-0.10187165679166749,-9.808204430821359,0.007616425235377977,0.0012971402991699531,0.28373034700129446,-0.0054622168135303245
931,-0.2787518112667005,-9.843715676284583,0.32240996917271997,0.0015716884802013762,0.2839024803166796,-0.005736725972214311
932,-0.036665227234235494,-9.379133601220005,0.1491922396990621,-0.00417680593820118,0.2822476406687378,9.619974786318874e-05
933,0.32509198737433226,-9.565917435277841,0.0824188581378854,-0.0025291072916641187,0.28567858405716917,0.003499797372830583
934,0.057372978911288744,-9.434782611240955,-0.10262496721726158,-0.0027950585198167044,0.28580522597809255,0.004933646385113099
935,-0.045311944921967176,-9.452295870517531,-0.1522141785137695,-0.0036298808676444158,0.28539224035768745,0.004891173716501323
936,0.06568112734142745,-9.57109628378403,0.026483305913263325,-0.0035501999461276666,0.2858665786738588,0.0033514770927269236
937,-0.12651574610834898,-9.359045058462963,0.3916232679649888,-0.0010949252810649802,0.2875116395894926,3.476570037610235e-05
938,-0.24400117439800564,-9.296618848648883,0.6114614963703316,-0.001925015092518134,0.2849304011023534,-0.0008149977095245569
939,-0.14328458038158065,-9.305934941515153,-0.018608145285653077,-0.00016511491558821923,0.28501721616438624,-0.0029548071610745025
940,0.1733591553783696,-9.461176755546438,-0.5511887048897817,-0.0002717418228677291,0.28769252386580835,-0.004623464712817401
941,0.44366916483839597,-9.585936769144595,-0.6219280046720579,-0.002541758942845316,0.29059191726341715,-0.005742436537569489
942,0.22546294430176997,-9.343711768921446,-0.3131905531427414,-0.004138833613645233,0.28954394852991083,-0.007307027429895894
943,-0.007060299188175474,-9.662497353284545,-0.18571309827206706,-0.00333062735553664,0.28089988944381733,-0.003022252916047026
944,0.030111262507781365,-9.673587900881596,-0.18176603585937934,0.00073955464697599,0.2796297052898493,-0.00201791408969267
945,0.12915974027299776,-9.61890690008434,-0.11474619069184666,0.0013480046453768241,0.28003529718722225,-0.0015648842178829735
