,acc_x,acc_y,acc_z,gyr_x,gyr_y,gyr_z
0,0.25363350900639065,-9.398464664084424,-0.20657314788553194,-0.00041365685583082655,0.0008535291665796791,1.6808594099320292e-06
1,0.268437339440657,-9.396865076784394,-0.10949630269043267,-0.0020934205508712856,1.8929017832890534e-05,-1.7056069497958618e-05
2,0.24148492622990614,-9.349644690403077,-0.17668193979276905,-0.0029273204789069416,-0.0008262456076572316,-0.0017348464354082526
3,0.23520163978288894,-9.361484549100883,-0.2022114002595879,-0.0018760346189835354,-0.0010466922945091758,-0.0015070197330777375
4,0.22258236248253555,-9.388244872382487,-0.19823171956505087,-0.0014677979482005208,-0.00019075178747528048,-0.00021562088051295674
5,0.21313312534380044,-9.395521166703375,-0.16620599890081264,-0.0020868287419327065,0.0008690870013298785,0.0006237318623920399
6,0.2504317534638251,-9.358619516247785,-0.09887546477295492,-0.002079813137367971,1.9933512091581478e-05,-0.0010745763411845867
7,0.24273106397503916,-9.347910962263128,-0.22747037023249012,-0.0012480205163482626,1.245705933088859e-05,-0.0002157060068312932
8,0.2561340768754211,-9.410087411120616,-0.28699001389702294,-0.001047252799086115,-0.0006339635042528698,-0.0006548802079194923
9,0.23074958979465812,-9.418344511547069,-0.28340980954388595,-0.0010542288813383798,-0.0010535643463749447,-0.00021294442435894345
10,0.2062841386967979,-9.364687208865984,-0.23942348655779988,-0.0010602057140932644,-0.0008329102116765541,0.001056608710024836
11,0.31127174891149245,-9.350540272265976,-0.19440333370227125,-0.0010518571540964817,1.1926559459905487e-05,0.0010539740927156805
12,0.24389071588461542,-9.404651714726544,-0.26221487136620913,-0.0010463834827516274,1.0884397357691863e-05,0.00020002330894695945
13,0.2130194445053088,-9.407751771273759,-0.24749833474760397,-0.0016738420619785712,0.0006630984985231883,-6.707552839885709e-06
14,0.18813077698673167,-9.374533199009091,-0.2216137480206663,-0.0016585557133352588,0.0006472363251173795,-6.693767199927417e-06
15,0.17969680875506963,-9.352062626114222,-0.2169432573457084,-0.0010464844273515347,1.0903616749909355e-05,0.00021577173715483911
16,0.23320708732905956,-9.414192841493472,-0.23160784329219933,-0.0010519310275263222,2.9737073509667473e-06,0.0010517289285960762
17,0.2495710524927315,-9.36888714225871,-0.27979721954253295,-0.0010548289021814609,-0.000849668401148107,0.0001936061137977728
18,0.23992499869669912,-9.333981076483827,-0.2540714991511971,-0.0010427769711058668,0.00024307955535552225,-5.001733706145543e-06
19,0.23689666575154084,-9.349685869084553,-0.2318738798390264,-0.0006036917139462161,0.0010696948101170808,-0.0004354636169833912
20,0.24885059150800817,-9.39508874810695,-0.23193911295904057,0.00023462923890559437,0.0008369189378512971,-0.0010614808301497222
21,0.26212407217275474,-9.396319091730163,-0.22234072554477316,0.001041062585518489,-6.780196111539476e-07,-0.0010607573712740803
22,0.1875236427501506,-9.344265224205834,-0.16796457967292844,0.00021295326719568072,0.0008594325504524152,-0.0010615002758660825
23,0.19636364041155913,-9.375836800455293,-0.21954066020994717,-0.0012609967944054567,0.0010756548635113652,-0.0010691867129738505
24,0.2295313478889419,-9.423259348800928,-0.2470632096917178,-0.0020738076991697,0.0010839246614445,-0.0010739625703064
25,0.24241888254680816,-9.426258875377687,-0.22966341475220567,-0.0018541332018731911,0.0008559751981515931,-0.001073764461941983
26,0.20290761093757934,-9.333835167549866,-0.23602715625613943,-0.0010383949428636595,9.363415735148631e-06,-0.0010462736403565708
27,0.16055381874925673,-9.338251028961835,-0.21398221609832516,-0.001049342285553288,1.1447739939575871e-05,0.00066162792718085
28,0.21704369347645514,-9.373940314221327,-0.2183218344690098,-0.0004044818216912617,0.0006580025041510681,0.0010677110807452768
29,0.23848913436360014,-9.380696304026259,-0.217366442963621,-0.0004302999989586171,0.0006288757225034625,0.0006259493974475113
30,0.1891060054292327,-9.352685981626058,-0.2094247823266258,-0.0008212207491995947,8.355362378321837e-06,-4.825271306912062e-06
31,0.11626814724566954,-9.32923673713157,-0.21763685734937094,0.0,0.0,0.0
32,0.24188564453149033,-9.377355085147597,-0.2880573094289412,0.0,0.0,0.0
33,0.17100110584325617,-9.367208342283902,-0.2993621568127509,-0.0006367230554537582,0.0006613284237739798,-5.712101908528758e-07
34,0.12631807540722848,-9.355676044715718,-0.2536363836512364,-0.000604373570729129,0.0006277288335603139,-5.421891664290325e-07
35,0.1698523419591671,-9.362604346070814,-0.2056511574354016,-1.4788578311077188e-06,2.815677977454565e-07,0.0002307175064781587
36,0.2377954044468523,-9.378755803262877,-0.24883323207614433,-6.7245941631811194e-06,1.2803321113298702e-06,0.001049108010771131
37,0.26426652456455396,-9.378248368349741,-0.25384926383389284,-1.2509228183649682e-06,2.3817000911625046e-07,0.00019515722700242036
38,0.2335572891218295,-9.351860281022887,-0.24233631118153498,-0.0006559972241967768,-0.0006496103223497002,0.0006517832756188673
39,0.22410503470605217,-9.354137932314735,-0.21980916173900555,-0.0010579887414688014,-0.0006073874984076549,0.0010577135571559382
40,0.259984278072586,-9.38581061089502,-0.22144491256548732,-0.0005955929191707569,7.292206014657534e-06,0.0010634287889295067
41,0.320936037193764,-9.406337911989732,-0.30089328496824735,0.0010185829604128299,-2.9082460255103944e-05,0.001052834571590821
42,0.27425060716799926,-9.39127621876572,-0.3159323864270266,0.00017920422143483146,-0.0008732139450870937,0.00018979682117107788
43,0.2759955966945599,-9.372784392049114,-0.2938336697976482,-0.0013060117920800302,-0.0010507697509868723,-1.2824668170068747e-05
44,0.26031219560460434,-9.362514839073919,-0.2023168453563471,-0.0016578685294448992,-0.0006003211066306238,-1.2728878623938593e-05
45,0.22027372645865104,-9.35778167258195,-0.10994735734396069,-0.0008155497789813465,-0.00022647027341705312,-0.00024105609663751246
46,0.19199625502573994,-9.34624782782383,-0.15281341701014275,-3.4030111324022653e-06,-0.0010431314433051204,-0.0010719921252730974
47,0.1862207379091505,-9.357940818391238,-0.11375127378164643,4.968534867544659e-06,-0.00019153149690840485,-0.0010678200942436393
48,0.2436144409161815,-9.39492663129708,-0.13018316589500525,-0.0012972797518531738,1.2732599890959406e-05,-0.0004113296295464119
49,0.24456929290420315,-9.404321475140678,-0.13497138467141445,-0.001651171581521449,-0.000432784802697848,-0.0004621514522527975
50,0.20177195491199226,-9.383521257581304,-0.13906645335657988,-0.001047877137158371,-0.0008176625919276149,-0.0008397600967028648
51,0.21902979097747519,-9.36694832046727,-0.2056496221930238,-0.0010691259811264507,1.090579758022762e-05,1.8103113033749904e-05
52,0.23394987686199953,-9.400054336495725,-0.2715710507477006,-0.0019118659448358753,2.046657454534875e-05,0.0008671343462179664
53,0.23461908698610234,-9.401294409037428,-0.23469532711694552,-0.0020979438599598,2.2577604662876194e-05,0.0010546013805931
54,0.23456516459047494,-9.36331076180589,-0.21438578078873505,-0.0007605804502224655,0.0004597078608792447,0.0006121666460343093
55,0.22260327084029052,-9.320539227418088,-0.21489687973325808,0.0008208983726580434,0.0010557054499664795,9.974272748842144e-06
56,0.17496117059293687,-9.334985858986045,-0.168491971472237,1.0028004720976154e-05,0.001037471343523595,3.166787238472614e-05
57,0.2023948768967368,-9.373439471538733,-0.2369013899617896,-3.817212623786922e-06,0.00018691355922905757,0.0008814466251239444
58,0.18505319991861197,-9.381468192175486,-0.21623307926875315,-1.338324125861643e-05,-0.0006644589631125032,0.0010636265538667392
59,0.2018506412587012,-9.380968216877493,-0.20294758232379526,-0.0004523719168886918,-0.0006058177683232343,0.00015195734776203058
60,0.24734443581365578,-9.38058397238495,-0.20296688199852037,-0.0012775944296760902,-0.00022931655860267412,-0.00107560216660171
61,0.25959293267194233,-9.380082000805551,-0.1690201774225572,-0.0020382059859244705,-0.0010158090243602368,-0.001055128386368866
62,0.20905715790178467,-9.365510299050214,-0.2515877103942462,-0.000361560954581944,-0.00018019615439116398,-0.00018717108536456354
63,0.20759695562427533,-9.400560518508513,-0.29398176517891206,0.0,0.0,0.0
64,0.22580907415554943,-9.396616307285996,-0.2891215816038973,-0.0008983813825601069,9.668180392738866e-06,0.0004516013342536159
65,0.23798174539460215,-9.359450964173131,-0.25345497560731745,-0.0016167219912212193,1.7117941572234137e-05,0.0005695597220467575
66,0.2196966199952881,-9.352790165003743,-0.22183211135413908,6.733590524768112e-06,-3.224261808248608e-05,-0.0010980566818928554
67,0.15039041459621463,-9.324109288815167,-0.2534167536814094,3.840855467144208e-06,-0.0008848857051374045,-0.001956981328412892
68,0.17274051916722324,-9.342114677873504,-0.253386175823218,-0.0013093443810930064,0.000288788462130285,-0.0007965293844483505
69,0.1738529500344375,-9.354207584145172,-0.2209066600185577,-0.0020910344092503553,0.0006285473673939239,0.0009092420211390233
70,0.15754452264845042,-9.352008423106243,-0.17898379620654267,-0.002103209733320891,2.3580202975088944e-05,0.0018761334749771942
71,0.19702067022508124,-9.354948207524334,-0.16524256937391887,-0.002065190218444921,2.220601879439439e-05,0.001021603224763101
72,0.2605513585075653,-9.383146514986555,-0.1701742721196591,-0.0012224502547355845,1.2645241829274266e-05,0.00017257199157897344
73,0.2089463611305707,-9.364138989032469,-0.23169695700208484,-0.0010384525895281744,0.000682979559460758,-2.846641429817754e-06
74,0.17214045731194144,-9.365920470736352,-0.26524772927858087,-0.0005843393213827712,0.000609428340771137,-0.00046179227635222115
75,0.16972688350723816,-9.395976093329237,-0.24206490294210836,-0.0002388436812949556,-0.000246471569846801,-0.0010695306313983047
76,0.15778913187216004,-9.424765204488795,-0.1759986068388784,-0.001014242673048866,-0.001054929873772205,-0.0010426466365899647
77,0.17030275229143718,-9.432060890500038,-0.25051375397482195,-0.000183235480070849,-0.0010623983353369821,-0.00018378091719974815
78,0.18586618423058485,-9.397691655229098,-0.2934783385565599,-0.0006597634159600602,0.0002918740860505591,-2.4961805268220283e-06
79,0.19230404261088857,-9.401029005712719,-0.32337038243013916,-0.0010361757426044437,0.0006118274496307672,-0.00046665917270900673
80,0.20435769328836217,-9.419763035080283,-0.30162593072417404,-0.0012854638111420079,1.2135674157782863e-05,-0.000823942576918447
81,0.24959323315538173,-9.378821163990859,-0.17738137916848856,-0.0020915874403802837,2.136737131595265e-05,6.293250973970226e-05
82,0.28424633585491393,-9.380255509233756,-0.31695778589784457,-0.0021025399226674442,2.3452674076344132e-05,0.0017716359089987605
83,0.34070006432121425,-9.359999924586855,-0.2980095776650723,-0.0014240858853222893,0.0006921915666581375,0.0007718680679499657
84,0.5497611218005547,-9.376253468282265,-0.26993364553137844,-0.0014957378799312793,0.0006148430951777604,-5.885883828725399e-06
85,0.7842273612300087,-9.389500859642846,-0.2710084158526905,-0.0020959666942473323,2.2201161313326168e-05,0.0007461425595421897
86,0.8109213331772918,-9.318489037656116,-0.27736437026552146,-0.0020742772639040707,-1.4654966741091163e-05,0.0033884181919086494
87,1.3148352015997748,-9.378978253564457,-0.2648719543381305,-0.001272756013860982,-0.0008695617389338293,0.007659721462029732
88,1.618837307552528,-9.384098240255444,-0.29555601904450474,-0.0004913780694010674,-0.0010405429030433955,0.016020466036917123
89,2.107213141425898,-9.35307487563843,-0.26175976271685725,-0.00018083278938527746,-0.0005640580885943724,0.02729275480703127
90,2.66669530608323,-9.349594285034282,-0.21446006547640045,-0.0005166101825814408,5.33560097011045e-05,0.04163675386105332
91,2.9606374947046934,-9.44630953508587,-0.2754369310587309,-0.0013057845082533118,4.056319480939567e-05,0.05986438004290633
92,3.7080856682099794,-9.401901145687091,-0.21439967546388028,0.0010427731919195357,-0.0008073892250304788,0.08379119220128199
93,4.271913418578379,-9.234153063070568,-0.3037511402562441,0.0020090938061805385,-0.00026862651750917733,0.11659848211650982
94,5.209707352267904,-9.221265667677631,-0.30443620146475203,0.0021328497615343022,0.0006287727332702171,0.15726783810445516
95,6.130296434359152,-9.307098188093185,-0.19552228632725777,0.0020780934093325492,0.0010239739929585468,0.20562791879151895
96,6.277202204838654,-9.26863530396842,-0.0769982100139327,0.002589275197806102,0.0002761711695790499,0.2619011028091242
97,7.563698642558957,-9.204817368501399,-0.05679038020763065,0.0038140682330734645,0.0003446207516619404,0.3319525418622471
98,8.2724561045349,-8.855780139788084,0.07145006674184451,0.005001019423938062,0.0011047636644234558,0.40886070520907114
99,8.113874511230831,-8.800678385625377,0.10036462129289112,0.0065918270728295685,0.002512324905222794,0.4959655664769537
100,6.615844100630086,-8.936498805087574,-0.004726144921686354,0.00847390768872289,0.003017559922294955,0.594609406637139
101,3.357896583619425,-8.860466320357196,-0.1809522787201765,0.010038635044444681,0.0006634433026873318,0.7028762746133327
102,-0.4626079890045024,-9.223321939508098,-0.30902251085352817,0.0077816420814189186,-6.167396343603706e-05,0.7925487498483039
103,-3.3180248460292776,-8.898184131244882,-0.3018272181648145,0.006997707517538971,-0.00013763653844726947,0.8636685390381033
104,-4.490497063665451,-8.740791618194216,-0.452837246275396,0.006876469325095315,0.00035949940168963386,0.8833109702631872
105,-5.0126631852598935,-8.873933392468826,-0.6355523556553557,0.006782988792323322,0.0009230173610476766,0.8588347098308816
106,-6.543802030674917,-9.055854842461965,-0.5431576326392525,0.0064019256564566045,0.000976300409611555,0.817644230299729
107,-5.700576531652857,-9.180369359774577,-0.4350472537756123,0.009394279765527931,0.002566154757651685,0.7450638707827928
108,-2.8965082977136176,-9.0607074385201,-0.31130549362627963,0.011714391225702746,0.0014048498225668832,0.6676374765684938
109,-0.8155801226190345,-9.08358851231667,-0.11977108161188613,0.011464646746368497,0.0010550918652968955,0.6028762081178712
110,0.13586751096649513,-9.112968667680828,-0.1409306931852114,0.008483658565384175,0.00188402764696485,0.5566989092046712
111,0.7381523286720355,-8.816130612292072,-0.6877910303125236,0.0036960359710942045,0.0026015214796270177,0.5293084208723817
112,2.446742808996417,-8.752961234317777,-0.22656212666656458,-0.00049843105982349,0.0009390409098991787,0.5284215428160832
113,2.6046564823018765,-8.84880868839185,-0.20459268164150352,-0.0014654594477208972,0.0013470782535332298,0.5559355616761033
114,1.590259763260034,-9.056014864058389,-0.40108257658059376,0.0001744813732961829,0.0017478146841445373,0.5934679516564227
115,0.2639653882052055,-9.152499242465355,-0.40447770702325814,0.004026502388115391,0.0012269911356327227,0.6357634783032684
116,-0.3085000114303058,-8.881326355400837,0.14634468533827075,0.009467497572628436,-0.00026682240585428643,0.682079323095116
117,-0.23678734056599604,-8.692793398103065,-0.4026094985037857,0.013438265110270676,0.0014375899586207966,0.7179870041324312
118,-0.6860889603217867,-8.902845170446376,-0.2189560886386518,0.014106303298406663,0.0017712113499691162,0.7365136486844945
119,-2.435454600142781,-8.768869716618479,-0.20959396826910262,0.012633007614096543,0.0017968606198688949,0.745732855298475
120,-4.278497270513318,-8.567553572750032,-0.2679966790069864,0.009859030443045615,0.0015573790403731879,0.7454759541681003
121,-4.223625598209982,-8.913116033978191,0.04146975765617072,0.006642810641108435,0.0007231362822947488,0.7322246981120267
122,-2.6574978734279773,-8.620668975495656,-0.5910598697967698,0.004326788309831249,-0.00014149358524675755,0.7006015793425047
123,-1.698401421278302,-8.747989134940592,-0.34703093046113287,0.0033286133972923347,-0.00031550951406144955,0.6773464324019128
124,-1.6378622807370045,-8.742508200474893,-0.6448918873384697,0.0036086007750559266,0.0011000650281931953,0.6530996583391697
125,-1.70651907646275,-8.688149345001477,-1.078604162804146,0.005393724339918672,0.0028039796903584803,0.6317766622939285
126,-0.8067669009838081,-8.88000740367785,-0.579665092494304,0.008686659144355739,0.0026451402883714567,0.622463966886479
127,-0.08434596831707665,-8.716297832330195,-0.08283027914201273,0.010321755523459892,0.0009282811596500345,0.6258820583600229
128,-0.1480105905639038,-8.86308662033091,-0.10414057598172513,0.009253031551393493,0.0013268572062461908,0.6271983953723533
129,-0.7468160475295462,-8.824849066198453,-0.007234246288432222,0.00800050167130428,0.0017176171564291353,0.6363025460954481
130,-1.2537952452644672,-8.67844060585769,0.17929903244382833,0.006778928926026042,0.0012066873717424893,0.6538493733036215
131,-0.9860974811782026,-8.713730598861002,0.12779026464661503,0.005013339814551892,-0.00033554791997604056,0.6748480147608187
132,-0.7748098133296382,-8.761295862098624,-0.6034825858487934,0.004144011782562567,-0.0003207833451398322,0.6799676063595312
133,-2.1611819692750838,-8.81169141852791,-0.2394496425573507,0.006668698721811181,0.0003663056451945786,0.6921196039945301
134,-3.101758993613727,-8.80702272314311,-0.196761311616834,0.008601203399836407,0.0016840554121058976,0.6911700661653746
135,-3.3662583379316073,-8.725530445649385,-0.35463418984771444,0.009498593178149942,0.0025471659411476608,0.6830682286077319
136,-3.301688508473791,-8.566666089798352,-0.11358624037043746,0.010211830676943439,0.0016864824505869445,0.6822027375684309
137,-1.1450141585206772,-8.361914695361332,-0.7260631114788855,0.009442844795796419,0.0008288069353982622,0.6702351276871673
138,-2.1358662990747703,-8.855831981387292,0.06553989393246218,0.010038516230385562,-4.031661595063575e-05,0.6603847352016766
139,-2.9426624481672907,-9.159308245535545,0.19700091641732292,0.008056726238076024,9.447325063351614e-05,0.6509774801783262
140,-2.756755329697947,-9.135883096429657,-0.08518938503740475,0.004485357512616881,0.0012484306136616705,0.6418429546135243
141,-1.880005087197336,-8.985151801441416,0.22133053287685175,0.0022874879694737464,0.002711103153240739,0.6345760646938563
142,-1.551763197737835,-9.158765672643261,0.04521044808979395,0.003052470888546999,0.0010090165905514712,0.6431137431511498
143,-2.1243256906144596,-8.737183684554088,-0.3048174755864808,0.005280926565393119,0.0006867830398914657,0.6410891289191226
144,-2.7953749881663335,-8.68513697066942,-0.3658791205957439,0.007271473134301662,0.0011648846263146197,0.6476615086858706
145,-2.6663924405631536,-8.897708251214842,-0.3648722923704756,0.008888518303681434,0.001453951671785541,0.6568886012987251
146,-1.229494636202654,-8.880709242191667,-0.6614921282751249,0.010432753813299502,0.0006511501128961763,0.6556487094320885
147,-2.177642029509424,-8.572181176248604,-0.1519107260559376,0.010405380316977936,0.0006563619019631713,0.659919265182654
148,-3.1991310761852882,-8.405685627460684,-0.1782948166808074,0.00831989495461174,0.0027992151125755867,0.6641886386444003
149,-3.3067626317356433,-8.828356642635438,0.21815310369341823,0.006785160165549049,0.0024099969922136313,0.6625156871357835
150,-2.6933216840863174,-9.249892821897063,0.48768474501399056,0.006486964021303063,0.0001360714114230209,0.6610262275854567
151,-2.1205151053945785,-8.834812108000719,-0.21848379452707922,0.007139705430702177,-0.0011585071768516284,0.6667952324828339
152,-3.0667373263290276,-8.357285794511775,-0.08117316195979607,0.006440751925131349,0.0022381965084057403,0.6505779394559175
153,-3.7214786505876356,-9.009167436166404,0.06787502695430295,0.00556990026867424,0.0021215395323177576,0.6556313474602682
154,-3.3853057173471752,-8.931940659015945,0.166661745630124,0.0057235510098008185,0.001263321143138928,0.651615440643428
155,-2.395859901792158,-8.418976787219716,0.29720899714949073,0.006594336546787342,0.000395179765026182,0.6450400919696742
156,-1.5932824367513096,-8.422710943315673,0.5063992705412658,0.0073806813839227365,-0.0002453315771717734,0.6518815570045184
157,-2.475011383217393,-8.470632036572088,0.033240051708442804,0.00825032635428004,0.0014462312056482563,0.6493329636508924
158,-3.650729990353348,-8.82600956593264,-0.08187084516191635,0.007035493614426177,0.002447463721332776,0.6446323976753879
159,-3.7185492959853406,-8.681691338936204,-0.027085854469089225,0.006798497530683469,0.0013152662622143126,0.6474816419099492
160,-2.695281987070383,-8.398134478322168,-0.17131512020485357,0.007318416572520591,-0.000387040335848265,0.6505876270224674
161,-1.4779489103767958,-8.607500370957892,-0.7353676872657988,0.0072851672502223,-0.0003935638120563892,0.6446472374176737
162,-3.7236624825439963,-8.54689323315727,-0.06425609367722544,0.006366560757337087,-0.00036941684263234374,0.6574547915654707
163,-4.2856753150339895,-8.645795073171655,-0.14601427162121755,0.007703923346929693,0.0017434991691576323,0.6488649802765178
164,-4.251810710442838,-8.521276050529035,-0.14595109123998232,0.007912270031764307,0.0022977241328878094,0.6485819393204069
165,-4.466812878333983,-8.670140348779046,-0.23611640615011584,0.0070542536578958774,0.001744306691490151,0.6510675610204665
166,-5.955477981203658,-9.54948715358501,-0.6928101209028412,0.006350290661412176,0.001815847378352629,0.6419677084900034
167,-11.77238630379534,-8.769379675879206,0.18947429164077764,0.006396996046627433,0.0026609498572848045,0.635992625288608
168,-13.970584147732996,-8.579832564440013,-0.064477231085377,0.007988228068005716,0.0006018723765881692,0.6035120333177314
169,-14.90975001777839,-8.760688334187014,0.16799811154310174,0.009602178444738225,-0.0005447032751796407,0.5342281120427278
170,-14.886415546559995,-8.937072934483528,0.6222186117668449,0.009942329927845371,0.0033957560046795933,0.4405292423738828
171,-13.770298753148335,-8.732503243092516,0.5401570650499012,0.00791706622769734,0.013446920295752458,0.33337479778100976
172,-12.813969377259728,-8.281757122145322,0.34355038024883444,0.003249501282241634,0.005599712739991311,0.13599128510205732
173,-10.242490651208719,-8.894362800880966,-0.08607179602851574,-0.0008933098993367239,0.0020856151373498666,-0.02688327234797394
174,-8.492985741500974,-9.173344607649323,-0.14226738565959252,-0.005587030423205643,0.0014452254539877559,-0.1559374050983246
175,-7.642198463116336,-9.042546744542475,-0.06857111124071132,-0.009105356832551346,0.0013464759454106308,-0.2526971493855419
176,-7.199509457280902,-8.849034688682643,-0.23547523548535326,-0.009433735952241727,-0.0003555015732212199,-0.3223341517580496
177,-8.47108580911668,-8.810566420831428,0.21417246431863596,-0.009075279005383921,-0.0012769439944736276,-0.3795674592725775
178,-8.14733094354315,-8.90070397484714,-0.2032753764292083,-0.006640385088367479,-0.0007724856092749789,-0.4281340895987133
179,-8.047617630134479,-8.629843674865542,-0.14041121511375737,-0.0043149842789760515,6.846317942313612e-07,-0.47560442890223414
180,-8.356325429257799,-8.19676324206322,0.14337595653067992,-0.0025947580034305874,-0.00040154679383631333,-0.5284394541648266
181,-8.530010813384472,-8.049551293202045,0.024243119492453093,-0.0018520460117721056,-0.00263105347473211,-0.5918635153561234
182,-6.462375685645446,-8.801380497249793,-0.013559429018970776,-0.00554842143006406,-0.0009741323258705986,-0.6653371589866899
183,-3.0515288312608426,-8.376370069337579,-0.2415145277534232,-0.009269750797769266,-3.5009412261653e-05,-0.7359238055137084
184,-0.9311725471633958,-8.37092845803801,-0.45154448511659095,-0.012101649036888262,0.0007839009442390427,-0.7896654205317426
185,-0.2084029372885728,-8.70761685379316,-0.35855803350453935,-0.012979635490962722,0.0007246629125554511,-0.8175382931128965
186,-0.040578877949442774,-8.832391532872885,0.12414560357526142,-0.011521351038148773,-0.0011556306873051864,-0.8124243333797248
187,1.2579498870969175,-8.488526455221375,-0.42840694283123787,-0.011888821268349,-0.004499242552124175,-0.7603371983038071
188,1.1013255248142513,-8.646391968329825,0.2426089452983105,-0.012867889152951036,-0.003508543387751895,-0.7169330229042836
189,-0.3932441234830773,-8.535667293452978,0.2693016575472408,-0.011484607523472764,-0.0027872412915662514,-0.6709697225880993
190,-2.476704516659342,-8.606610519252525,-0.2081965371417665,-0.008709378483350527,-0.0018689500783377019,-0.6261477563524179
191,-4.1176797321620375,-9.304756266629312,-0.4714895799454729,-0.006401066639972241,0.00044629452404092173,-0.5912063127926073
192,-3.994949993434511,-8.627213507559548,-0.01571150444281233,-0.003962016904834547,0.00043430668339668427,-0.5800869958548986
193,-3.5759622919743057,-8.639402972161754,0.0944076512178454,-0.0035951286081445048,-0.0010210907630896747,-0.5813503379164495
194,-4.178777496446408,-8.886585787545311,0.15621378240033532,-0.0034858583760238974,-0.0012073590566698956,-0.5986517503240754
195,-4.772771935033452,-9.005090811531106,-0.07092093155616247,-0.004183379152483815,-0.0003809052831081313,-0.6266380326469572
196,-3.9709240125368126,-8.765657268473191,-0.6476892425523298,-0.006494605547256776,0.0001955218150653217,-0.6567823446840573
197,-2.5005736132717464,-8.676372395296804,0.4708651052528182,-0.008862018786043169,-0.0015123757575831321,-0.6815756191043271
198,-1.4173877852307788,-8.870610757856038,-0.005351228477448733,-0.01049213041066759,-0.0017748594182866624,-0.7078174157217461
199,-1.9522631548510958,-8.840103694847844,-0.15997000731160796,-0.012066748680362605,-0.0012607776006081043,-0.7224261607405777
200,-2.159177307709303,-8.78904045646474,0.010968208288470595,-0.013710242544763305,-0.0006993153999899085,-0.7262320480939639
201,-0.10198784817978179,-8.959730157603902,-0.023723651943769658,-0.0150489037976498,-0.0007725470284451675,-0.723355776791171
202,0.49337170792198165,-8.57939361102584,-0.8272073283149127,-0.013465653815524632,-0.0016255398676147646,-0.7105376452525761
203,-1.1814931853119737,-8.90912962128013,-0.48958950843683435,-0.011182607458217357,-0.00029040232088273015,-0.6918517177338932
204,-2.1468878864453815,-8.996491335512252,-0.4883606150126675,-0.008289226895177335,-0.00014514781792979793,-0.6721875622971354
205,-1.8925102356677472,-8.890828518587991,-0.44151867964781866,-0.005357457997207363,-0.0007020402337834743,-0.6549717288305733
206,-0.9324134633654094,-8.836192161126297,0.18316045475632492,-0.0033774664213771168,-0.0008009409801241537,-0.6431667638144366
207,-1.76505051434039,-8.600141355666231,-0.14995303371390434,-0.005080699520999631,-0.0016313500522221773,-0.6397641607499125
208,-3.1802866438984667,-9.113068448824109,0.03382039638999329,-0.007460629179941007,-0.00099657697103961,-0.6407618233445425
209,-3.4831390952203076,-9.201774529104984,0.09583432435488946,-0.009435002641338997,-0.0011684248303907043,-0.6450871887909009
210,-2.5863828167817813,-9.092217216346482,-0.009322103400288419,-0.010760216935227737,-0.001709075899456374,-0.6532318119978928
211,-1.1259160600275981,-9.200648084016073,-0.21894757817535015,-0.011334885638580946,-0.0017169329732841365,-0.6650986146625812
212,-1.21254881677644,-8.896812928724549,-0.7677359895313549,-0.010427226488385443,-0.0017389956185037457,-0.6761982672428406
213,-1.9050944562588603,-9.271618185585037,0.024538095541129568,-0.009551646928756208,-0.000284453674312204,-0.679929565696108
214,-1.5850123022880442,-9.224859032535631,0.014589517979108929,-0.008184867979922182,-0.0001624942733629163,-0.6824833026885688
215,-0.710234158669597,-8.978478111308236,-0.2976178217511321,-0.006816361332955366,-0.0007197717579543728,-0.6831801971259996
216,-0.2765879254202074,-8.972874822619564,-0.029418912718821362,-0.0061891727472200096,-0.0006257499054423032,-0.6800310144876008
217,-1.2584258352404154,-8.980450255540804,0.08560264883195244,-0.007066555386841278,0.00024374208065329543,-0.6723445966748305
218,-1.5826223773648145,-8.959317121268445,-0.24594414810728044,-0.007948947097801185,-0.00036058576882202814,-0.6661414722781362
219,-1.4836114265793543,-9.018180105971808,-0.31741571477034153,-0.008832125486732761,-0.0011963779997243677,-0.6601713000949625
220,-1.0598580819288597,-8.971062508629199,-0.24012722619635488,-0.009398340271646443,-0.0011017420577937901,-0.6545072152491803
221,-0.6543263570375274,-8.725192748381895,-0.2291800277497474,-0.009220420782046695,0.00030838244097449764,-0.6497715922375423
222,-2.029380723878868,-9.065220657860896,0.04326112245781068,-0.007566783081687958,-0.0005581534499957832,-0.6480572309980694
223,-1.9938611882005557,-9.348434066596344,-0.2800668956880434,-0.005907715262137875,-0.001425600508510682,-0.6470838030999602
224,-1.3336175915117103,-9.190154686334754,-0.229265513492878,-0.005769500422500519,-0.001756064596793136,-0.6499228487567072
225,-0.7554746353043567,-8.993720590030415,0.06527498597911895,-0.006275767957881693,-0.0017550179034320594,-0.6534788375365549
226,-0.8751285640583103,-9.13638183958427,0.1948772642029438,-0.006367010578173958,-0.0015528710765370128,-0.6544338111955251
227,-1.907502248648676,-8.866880512376568,-0.32985465791426427,-0.007175801007807331,0.00015675511571900847,-0.6561382836366252
228,-1.075695430660112,-9.23320075315233,-0.3599920385531189,-0.008003902711707535,0.0003864870843906118,-0.6571082641235043
229,-0.14207330362935636,-9.205632385184968,-0.365255547645179,-0.00831463706905161,-0.00014066295085228995,-0.6590259862928831
230,0.22027242431776198,-9.12464311452327,-0.22985337396842917,-0.0083095716265413,-0.0006785329800703,-0.6606407574719326
231,-0.25818484728209556,-9.347194864391636,0.03131599835209359,-0.008207708526888024,-0.0005760931092861194,-0.6605360232246933
232,-1.1447267246785777,-8.73861351189931,-0.8978644223931265,-0.007368329787909979,0.00026803837554577445,-0.6596729854742734
233,-0.9400811523667891,-9.093222059448236,-0.19360944293804622,-0.008741335022174737,-0.00034893793472469306,-0.6573400921913055
234,-0.47037495585839584,-9.183701528573973,0.23314990912398206,-0.008355771247814012,-0.0012015861417866726,-0.6547796981408408
235,-0.03699387682495079,-9.055400615769337,-0.09282370603088613,-0.006385805250016601,-0.0017535351961484266,-0.6531651047009691
236,0.0174060926859905,-8.996164926434266,-0.9442185520655835,-0.004705074309878491,-0.0015591645629978647,-0.6528365974951723
237,-1.4216602555308828,-9.104906570568138,-0.296884808918925,-0.008887947121166626,0.00018972390418899837,-0.6502901785431561
238,-0.8238552404670557,-9.123908188706734,-0.8307062138976286,-0.009424681774849708,-0.00033480509890885797,-0.6492276031088217
239,0.10698013617071278,-9.192430622597147,-0.35711676794025926,-0.008918966182197775,-0.0011900317182620098,-0.6478403412447391
240,0.3447088813785043,-9.129762017367073,-0.031067138277794892,-0.008406893859538711,-0.0017259457419227598,-0.647094390042287
241,-0.5214123092913479,-8.827128015308569,-0.8940626949989415,-0.008295229582644212,-0.001620196024060279,-0.6478391570963834
242,-0.7813105795378735,-8.800542198904946,-0.18770603566245841,-0.007450377172321312,-0.000777106701330483,-0.6478300701297324
243,-0.8005726120560929,-9.035213737104439,0.2965588041210527,-0.008058563895756366,7.816962779464781e-05,-0.6500774514564308
244,0.06745613081202845,-9.038588089092762,-0.24462596301342215,-0.009437534948434795,-0.0011946117369830967,-0.6494367484439731
245,0.7885665794721679,-9.127120555732613,-0.6860241950773157,-0.009552605661756119,-0.0024572158698407385,-0.6475274757004463
246,0.6362234977494063,-9.471798140304958,-0.10860136984725752,-0.007253747599144023,-0.0015174214908799774,-0.6467655664570702
247,1.8264613168597283,-8.841160391543456,-0.2954408591493677,-0.006400523642821324,0.00017726777824626758,-0.6467523074593897
248,4.596440043341947,-9.013076202865328,-0.18267648765335492,-0.006315194860785429,-0.001868079919977466,-0.6475129759739537
249,7.501982343101871,-9.123459232820329,-0.24363434283710128,-0.008027176563160654,-0.004387095241749859,-0.6311587275710135
250,10.212941841728115,-9.191255420257374,-0.3896026624972228,-0.008810566662199662,-0.005604796591823153,-0.6040384510072456
251,12.31670793866801,-9.35051531452004,-0.4270687591816375,-0.006332245878891185,-0.004731474016947656,-0.5634596463841678
252,11.995685445604245,-9.493460417899387,-0.18680870774011757,-0.0029228243226100087,-0.003773377784090393,-0.4412862605924673
253,10.607941661236877,-9.334285929796257,-0.44101856306636833,-0.001232112241708696,-0.0012480448398193285,-0.27917071894652107
254,8.729406085182042,-9.054624532566482,-0.26230544859483723,-0.00027229494712774084,-0.0006741237471062012,-0.1193102880676616
255,5.78750513793373,-8.993853454114966,-0.08733737686741064,9.533877490653902e-05,-0.0016811437519883717,0.03254516326960333
256,1.343986396307334,-9.271688495849029,-0.4139941513517375,2.7065178703771893e-05,-0.0033390995308944615,0.17092025601090474
257,-3.8583106464606205,-8.982999671514202,-0.938922268778145,0.00026980324387074667,-0.005794805351113363,0.2597459883511608
258,-6.637288614381998,-9.24795044185607,-0.42762478289914896,0.0016564407648045046,-0.009090013033170244,0.28432567757614324
259,-7.926763195850489,-9.577516282376102,-0.1371956558607629,0.0023378422868637694,-0.010353996039694224,0.27123855332720725
260,-7.961061946757782,-9.639266668461843,-0.06699095330305521,0.0024188680502286483,-0.010757124307523938,0.20769365023122843
261,-6.8505279475830605,-9.328887928265615,-0.040354834826594924,0.002449387312811349,-0.011862990091895561,0.08879398029806539
262,-4.351172915378972,-9.313811009184729,-0.1255697194844471,0.003270321520468604,-0.013725679928566418,-0.04190090694948359
263,-1.67840247263843,-9.439070596558187,-0.09982706839476516,0.00029579954910427487,-0.014020556038915142,-0.15744959226166197
264,0.6229388215776259,-9.502559629668493,-0.13991945561870528,-0.0033323302461411896,-0.013539294604178194,-0.24327769004249383
265,2.5475489083906186,-9.405739857568108,-0.2068004936949634,-0.006538911139673362,-0.013707633442951644,-0.2944130096751995
266,4.044449882381189,-9.187972411479146,-0.2794706698597806,-0.008503678880302602,-0.015884777846920894,-0.31007397660861247
267,4.391943495562655,-9.34160351995457,-0.5677225882421623,-0.007842575003060103,-0.020979720164840617,-0.290448414144593
268,4.211254146963333,-9.307081801717137,-0.4298665043504355,-0.006551754641772762,-0.02378236679017092,-0.24952083009975015
269,3.504933198016567,-9.309892555157205,-0.40977374151110163,-0.003616960524712622,-0.02631017269036069,-0.19938470060728117
270,2.370722071365368,-9.346997417256157,-0.3340438710712495,-0.0001321134643746081,-0.02984074345536669,-0.14690427549703813
271,0.9767339442410184,-9.381487448366222,-0.061786442031261705,0.0025031229529540555,-0.03480238496692761,-0.09906267371074504
272,-0.3920636123906832,-9.397153633476771,-0.02309881775218286,0.003089679458985964,-0.03903088262586035,-0.06662047866464067
273,-1.2251338696187333,-9.359370012872507,-0.035296707357798045,0.0008378097930603272,-0.04401820455249524,-0.05859745716940966
274,-1.9213125843967767,-9.429449915711347,-0.09893988235262843,-0.0005870680980005294,-0.04802757437990374,-0.06613765126377852
275,-2.348294332576727,-9.441299325014922,-0.1801697779227951,-0.0013123910218252267,-0.050781694906230725,-0.0877425498219758
276,-2.334536290291555,-9.28510995132835,-0.2240871862095086,-0.0017047901775551519,-0.052397991186406145,-0.12181773665360518
277,-1.7978944915417843,-9.241838164729902,-0.11592908306970187,-0.0005966713778373999,-0.053311272736106245,-0.16537890291863952
278,-1.175081974944093,-9.327986714325295,-0.0310884584791092,-0.0017589015434987115,-0.05648945655210123,-0.20896448491149758
279,-0.44084755925928176,-9.318804414797643,0.0014809505435791179,-0.0015723542885523476,-0.05774337834299348,-0.24811994589548986
280,0.29590439421587983,-9.333077165466124,-0.09216419502368263,-0.001211643227576567,-0.05845772864709866,-0.2784167778838116
281,0.8780475875649614,-9.420866307805547,-0.28727210736663444,-0.001694955163856466,-0.06005363627480431,-0.2975452826273173
282,1.0320613773406602,-9.19330809632088,-0.19659844001259036,-0.0007956675596609912,-0.060927298866420634,-0.3086491072386047
283,1.4276158629121367,-9.332406214274682,-0.15459376629591212,-0.0007387293936235107,-0.06407457813278225,-0.3090317720995458
284,1.2923592886058652,-9.454944751205776,-0.22382777760194011,-0.0013232248788112772,-0.06526118095435561,-0.30430951006700524
285,0.9600200073778187,-9.443362405317323,-0.21822655337209448,-0.0015547735510979994,-0.06695025293089155,-0.2971448351048105
286,0.8180263453191348,-9.290667381771753,-0.08235294122816485,-0.0006824457106938157,-0.0712098885861077,-0.2897285795593555
287,0.8536420342047697,-9.213203360516808,-0.3367613778814148,0.0009111020161718848,-0.07547921971351979,-0.28376035391327203
288,0.21152186644783358,-9.328760532380645,-0.313646855376708,0.0017980844636913042,-0.0774439052066779,-0.2816303005426813
289,-0.22737504550214957,-9.273014917188238,-0.27722918244253436,0.0015460770083490431,-0.080259218884568,-0.28605409035665874
290,-0.2542136017384892,-9.314083807470054,-0.3514246712771022,0.0007540941619687742,-0.08298739571324079,-0.2971907992752546
291,0.034672283933930646,-9.55296613734542,-0.5423873275313,-0.00012345101686734553,-0.08470111280446371,-0.3133038375404076
292,-0.09912719593372511,-9.233582637595243,-0.5434506381563081,-0.0017153894833603946,-0.08640604726934707,-0.3286971393551191
293,0.03694478759297939,-9.248200108097587,-0.3397526521281551,-0.00027256001594654804,-0.08891515835577578,-0.34716069485627987
294,0.20800500642406022,-9.595699005202054,-0.07867161726903019,0.0009583446641008657,-0.09094924682037411,-0.3665134427510247
295,0.2555814348108804,-9.597123027000729,0.1159320036803898,0.0018984064856711561,-0.09302922378915379,-0.3858190536760321
296,0.2787532880118354,-8.993237946437558,0.062463924583427255,0.003084393093347878,-0.09535300682434472,-0.40342508254229303
297,1.187434647688577,-9.13572181685716,-0.6592836964867547,0.0056574199936243194,-0.09624449827885383,-0.4145190765847758
298,1.800196736837134,-9.258588687643263,-0.5538451860336224,0.005140181132390421,-0.09863892741424996,-0.41867689608613307
299,1.6459428257680444,-9.147654270190554,-0.8237427693923365,0.003780053062498528,-0.10006992711306228,-0.42491083586246803
300,1.1554668699095942,-9.173189035170997,-0.9341936945329935,0.004170401207570527,-0.10197258048732873,-0.4312152207310119
301,0.8239120525302457,-9.481049356034513,-0.4634402504671603,0.0068558689080039995,-0.10514421988829233,-0.435619935872757
302,0.9562676531187542,-9.287112389370835,-0.014469499167567814,0.00603549725894514,-0.10684516408714416,-0.4407585032364936
303,0.14239488573620787,-9.032430987762456,-0.0013761931436870262,0.005932017120252044,-0.11087148829150392,-0.44280139871785307
304,0.6898846092149058,-9.114715448355419,-0.4170585865684882,0.006484786054037941,-0.11402041694451526,-0.44789791745907126
305,1.0599140882150204,-9.330215699601935,-0.6219811327940933,0.007339079280661595,-0.11694192242838128,-0.455090027129828
306,0.2842900525874277,-9.413500713537724,-0.3392412462903135,0.008199936795955355,-0.12009534344002146,-0.4636077893191066
307,0.5557393570671323,-9.140071841652153,-0.6019483893621568,0.009101800196840662,-0.12182269030223906,-0.4764236875289624
308,0.8096567550817092,-9.197518772886138,0.14828936276029103,0.0076751491247940284,-0.12429638566531928,-0.4838117073922653
309,0.873111592916676,-9.297553255288399,-0.15718116392139436,0.0077081172650950314,-0.1251722116684781,-0.4923439473403334
310,0.8926425763850689,-9.305629301506594,-0.5797880431869116,0.008962084994455437,-0.12625278804608378,-0.505256917028288
311,0.9912919749093401,-9.200292823403434,-0.2823796789797399,0.010587580970144263,-0.1287068071812586,-0.5227806863280235
312,1.109690075799424,-9.22503966463217,0.23539864728122722,0.011505865385063973,-0.13043728052978285,-0.5381584368891856
313,0.9507394839227457,-9.135249568407552,0.1941857470153179,0.010858676510194705,-0.1329249472720961,-0.5488690500345641
314,1.0095589239987084,-9.207048182180792,-0.3898141041652125,0.01121748029260776,-0.13323799525457786,-0.5625213286136774
315,1.359359686019554,-9.29759502687245,-0.7088180968797623,0.01246790816402324,-0.1341782948704899,-0.5743530648172774
316,1.9074946381648858,-9.262769967824893,-0.4125641287820804,0.014012280160778276,-0.1377501212594984,-0.5811946340354337
317,2.2631702339281397,-9.083758487063665,-0.6679736824775536,0.014850695084448312,-0.14202577049344114,-0.5880437931059521
318,1.7637345326554619,-8.979000697453532,-0.5498223254600991,0.014905639641861812,-0.14550893808540094,-0.5909825617197422
319,1.3970862662253833,-9.244439314928105,-0.54684469587167,0.01658216162610579,-0.14609654849696097,-0.5923999128666132
320,1.3026494908843012,-9.377540278369654,-0.8291489990543813,0.018770437837034436,-0.14669437707713137,-0.5975197381499282
321,1.3338812347307076,-9.122974265373832,-1.1284861228938439,0.020343693984849167,-0.14956431964120145,-0.6081986518796201
322,0.8347802972387687,-9.123359134563168,-0.05325313779076759,0.021193846818848047,-0.1538420621691011,-0.616756509734436
323,1.7620769246189987,-9.331971800400199,-0.4007427162470366,0.021287764810044338,-0.15733082781703542,-0.62609858632374
324,1.9186764202420337,-9.686203330869187,-0.33796770250542396,0.021910981629005087,-0.1596205528246981,-0.639502397908186
325,1.6295265022757386,-9.287360608700261,-0.20321540319121406,0.02282345593438374,-0.16170846105870862,-0.6545243096492342
326,1.4756719185759226,-8.114898127204906,-0.30637136654181807,0.023721064895179885,-0.16414297650909504,-0.6677428541656427
327,1.9930619936037282,-8.669704658600915,-0.2651335588687104,0.024585379884891505,-0.16586383389504403,-0.6745794925281107
328,1.6447645532225101,-8.531292133409927,-0.5843750541970526,0.026259989680926736,-0.16602797580182416,-0.6853370084145645
329,1.5548106614157202,-8.750189755297692,-0.13026181452335572,0.027978480471980847,-0.16834620532372785,-0.6958686193138486
330,1.9788777973495462,-8.94082672203434,0.047142128598390426,0.02932870782261352,-0.17105838040669635,-0.7046814649190236
331,2.605084683932367,-8.948775378074128,-0.36934654869188843,0.030483489728888157,-0.17307757902774382,-0.7122569411737538
332,1.8985464233362566,-9.601443163134618,0.7577972641291499,0.033031396851567245,-0.17652386934288727,-0.7233626494776032
333,2.335709377988417,-9.371635977832701,-0.062293789800581145,0.034788499682786744,-0.17917024024650458,-0.7305249477611401
334,1.790887222048796,-8.818098625927593,-0.10975033369293914,0.036486533738053065,-0.18002585059768128,-0.735624660211144
335,2.0569168684317747,-8.55559053181369,-0.4542441520339111,0.037492856458324536,-0.1800439573894922,-0.7424301571719517
336,3.534645694882865,-8.949907378982887,-1.396372569654971,0.03799947312836225,-0.18051034379043449,-0.7534296784073798
337,2.23852339530158,-9.808553247889312,-0.3867955175368435,0.04057765162201804,-0.18310920378614598,-0.7679478196469964
338,1.7799498139369767,-9.275972858074589,-0.16590383131417483,0.040053811756419665,-0.1817245803790331,-0.7761363883357074
339,2.177417707743598,-9.216214366563204,-0.09220832358914191,0.040970195144580335,-0.1835023731023744,-0.7872957797345193
340,2.686650980340356,-8.970429616198974,0.12551693930004648,0.04302904415001288,-0.18694186590030779,-0.7968273396912964
341,2.8273808945079786,-8.291796019617465,0.3395945001867977,0.04554881306015204,-0.18992690433966308,-0.8028648676677144
342,2.9067942548610834,-8.489465864924085,-0.6026910720063189,0.04811558358205105,-0.19081654503795528,-0.8131041097922697
343,2.4230097751520634,-8.147067610973593,0.28751899322196944,0.04992118768504909,-0.19328662215407358,-0.8281155976849075
344,2.752326458975044,-8.501366808572874,-0.7343982710567474,0.05221059536728537,-0.19587883908680848,-0.8394280224198104
345,2.9851900714624193,-8.868747611011965,-1.1634374126333278,0.05439576559850589,-0.19920150351011962,-0.8499293027169375
346,2.567387275382863,-8.658258483247627,0.22896148626639734,0.05624993162658481,-0.20287589265211123,-0.8601974922089927
347,2.208342627968218,-7.842772878853834,0.49288022274886256,0.058768209115629674,-0.2037561589470115,-0.8627487671695006
348,2.921895838463148,-8.814842150118707,-0.6829729549502316,0.060512583312125556,-0.20462947085513977,-0.8661006412929066
349,3.4018014442466296,-8.962874047521089,-0.9230587865438137,0.061110740321631926,-0.2055011544118232,-0.8776732097773186
350,3.7884926625557505,-8.666058567358068,-0.8424826535566645,0.0626022360966656,-0.20748543398147978,-0.8875070224092125
351,3.874346261465408,-8.45259470521895,-0.7286687147618494,0.0654776119610489,-0.21014429490838973,-0.8897525101053045
352,2.3111062952420656,-8.604777093814548,0.5001480134359924,0.06632794590332308,-0.20930144812339943,-0.890597370005022
353,3.152497499644576,-8.385341303350458,-0.3499219538655972,0.06791883216527887,-0.20686602610315086,-0.8826561121412357
354,3.9477264932572806,-7.995405569885799,-1.189423918484695,0.06902583203323344,-0.20373423410310748,-0.8787700194162797
355,3.841468021351462,-8.013723528472621,-0.8520552110581379,0.06915556032714351,-0.201439605420642,-0.8785365373935375
356,2.926781901864847,-8.703786171926737,0.38614060596393723,0.06895557925263215,-0.20026943794546678,-0.8791296824392422
357,3.029778623777359,-9.637328635229926,-0.7086404450050805,0.07146354327572325,-0.19773496520085035,-0.8748310593420385
358,4.4294520452958475,-8.624278274065281,-2.0314874781351793,0.07399413538685456,-0.1976017077600732,-0.8777435099816764
359,4.158843112618184,-9.20012402820307,-1.258108898257429,0.07531761292623113,-0.19936721367256785,-0.8747049244582006
360,3.4782928259984893,-9.331489065023586,-0.6799651123068422,0.07614379736413593,-0.19969251487280487,-0.8735831532744138
361,3.4290215755555904,-8.126541901154631,-1.219879164106187,0.07734777955132745,-0.19763676067671038,-0.8785305189882389
362,3.9367857887224145,-7.9615367898454785,-0.17419344479551802,0.0798853810686593,-0.19766751232797436,-0.8827863253169766
363,4.0716952715587755,-8.024567071166523,-1.3982281008086976,0.08314616118214976,-0.2008998205499265,-0.8822411627814919
364,4.574736335439013,-7.756478807600538,-1.365528995609731,0.08476564676313367,-0.19962203419923782,-0.8807824430032541
365,4.6319163132734635,-7.530712976420557,-0.8473879729792819,0.08523850856187826,-0.19734104868995306,-0.8779318876004598
366,3.9407724570652296,-7.639898970110398,-0.5101653497297294,0.0850785073462168,-0.19615971212019614,-0.8761024721952178
367,3.43108307152621,-8.101989212735917,-0.15114254174396247,0.0843211078240928,-0.19360681822283293,-0.8846367889855667
368,4.407843130994783,-8.262562990926975,-0.09247601181002657,0.08661715843222254,-0.1942807008796582,-0.8827122329283787
369,4.408643405398953,-7.879323452295019,-0.13864552527436724,0.08794751005343984,-0.19632539624655898,-0.8825167155354351
370,4.070352373465164,-7.535815116472814,-0.1170049341068449,0.08987039386587478,-0.1970107121888792,-0.8795797292493392
371,4.122036081387116,-7.546049090111662,0.018524921778569427,0.09302904855396504,-0.19533109975344876,-0.8728572735361542
372,5.087028732950604,-7.598390398714816,0.07230126315462439,0.0955395935133433,-0.19365031225798943,-0.8702715258692395
373,6.635959417913975,-7.696265012691683,-0.32697175396967687,0.09655527564840147,-0.19116339246218747,-0.8797883759022487
374,5.222735381916302,-8.341249992555499,0.17304328148926937,0.09741443155614823,-0.1898013762488876,-0.8811247126592541
375,4.470092814184856,-8.455816097261776,0.533597761209962,0.09715075526088673,-0.18856816313139318,-0.8819825011245287
376,5.757707139473948,-7.702446101653612,0.11799204077689256,0.09566869150924463,-0.18735361366958256,-0.8844298439368469
377,5.3216555971713975,-7.318034678197685,-0.6920461853497686,0.09476908696668099,-0.1881862784356224,-0.8758970175706441
378,5.093843948756396,-7.531498212915583,-1.456977221103636,0.09635233744338154,-0.18502390191500429,-0.8778437951332942
379,5.305702276844629,-7.805427159134165,-1.282766780414824,0.09925224740370941,-0.18343609841766098,-0.884551735597465
380,5.456557117228519,-7.925136727700725,-0.9559047137233045,0.10262052278024203,-0.18415041892764533,-0.8888675189818551
381,5.407931529255998,-7.725183786884523,-0.8816492183478357,0.10594271463137034,-0.18623146316592662,-0.888173607256763
382,5.7804523832760175,-7.0601109893170495,-0.5655053274358808,0.10928942351670352,-0.18626551365179045,-0.8881539428993137
383,6.106368637350949,-7.86903585887819,-1.1407504372947883,0.10940731853691313,-0.1846367089799598,-0.8776030793245423
384,5.513780800486009,-7.820186454463549,-0.5657719154653316,0.10942570486300322,-0.1829335815978049,-0.8778507281054844
385,4.9193945460774176,-7.716633686468018,-0.30341286729015493,0.10982872929784004,-0.18162010343004104,-0.8798877944394894
386,4.866767128754411,-7.894326705914438,-0.9144083892097948,0.11066146846228957,-0.1811176690991292,-0.8785155871343855
387,5.073241865672483,-7.510880881523882,-0.9948871239517438,0.11148956992000594,-0.1819785792935557,-0.8785148481471936
388,5.9339526910501466,-6.708297692662577,0.5747368647407749,0.11310150300698528,-0.18365649318270214,-0.8777005081250863
389,6.75197163126624,-7.020572141085618,0.1954834254141758,0.11534704050526182,-0.18238521926593038,-0.873226138853773
390,7.097534299903345,-6.867930525130346,-0.16925755570749532,0.11712901821916688,-0.1794617584659543,-0.8734161694497267
391,6.714948089538792,-6.04001523794213,0.23669089695481707,0.11820085907864783,-0.17641877606334705,-0.8788194503535829
392,5.563695010965293,-7.03199352443631,-0.47013867342734267,0.11986865893471924,-0.1747284268123666,-0.8753838696217623
393,6.181090352629386,-6.440697085087111,-0.5291971423923205,0.11919379746192509,-0.1713942239561756,-0.8776622999650541
394,5.782219001402962,-6.632954657591067,-0.5298679831865437,0.11894620162585404,-0.17158821838263555,-0.8778182010284774
395,5.302389445039318,-6.90912084267134,-0.05369562092821478,0.11855550011322072,-0.1717334582910109,-0.8765776505676298
396,5.4100561318617215,-6.894440703431713,0.44702129682111436,0.11825977142625059,-0.17002799567345844,-0.8775074253984475
397,6.03525585973253,-7.02545463669065,-1.0940262447232088,0.12002066239337543,-0.16835456942518862,-0.8885938150636263
398,5.5231604168632895,-7.1484894161428665,-0.7430117110734733,0.12485370283270263,-0.1699564672641793,-0.8841442759420497
399,5.363678376623962,-6.528088030718093,-0.862546734176955,0.12692209187410752,-0.16926992400736107,-0.8844442605047388
400,5.267655254694885,-6.208502784095648,-0.21441743593114632,0.1292879429364726,-0.16836847504474356,-0.8822903986659554
401,5.199811201649474,-6.6071429764122875,0.9363812408313492,0.1325572624971691,-0.16857292291352882,-0.876369765534452
402,5.700356018420561,-7.006115338647146,-0.46960453264032836,0.13255436462251394,-0.1694255650220278,-0.8772278883492503
403,6.538990083299597,-6.621049796386014,-0.2180096799741981,0.1318309502148901,-0.1661911067500186,-0.8846281620704725
404,6.874269258909756,-6.808439231031349,-0.5314238933337458,0.1315871966239624,-0.16580600637686688,-0.8838214359339565
405,6.818083420069196,-6.466636796070053,-0.8409789841035353,0.13233555169067204,-0.16666307723030946,-0.8815189656197782
406,6.6729595870767655,-5.723507799955337,-0.673030730111569,0.1338122635701646,-0.16716667655729198,-0.8791632610753893
407,6.982431045907351,-6.86728471003203,0.12923032612241797,0.13458594283421235,-0.1663100361915655,-0.8680504084245794
408,7.1548215788061995,-6.526566243000662,-1.0847016723300515,0.1363239302782191,-0.1622064105778519,-0.8766419700931558
409,6.868940746961354,-6.222348969149329,-1.3812636695757323,0.13864637506532454,-0.1597977967720314,-0.8811408153564098
410,6.398411717133589,-6.345487392869053,-1.3884516206533692,0.14079789968634962,-0.15772276774123367,-0.8824924704278578
411,6.210294480722414,-6.645594704005024,-1.319833088345215,0.1419579465352083,-0.15554409672775665,-0.8828409919019659
412,7.067958772536039,-5.9421600552279505,-0.4973027062842599,0.14114078969917238,-0.15468607146045313,-0.8845504382058174
413,7.00574192075969,-6.087097416668584,-0.1573818977556854,0.1402405336048037,-0.15628184712410445,-0.8772060545757254
414,7.178893206952435,-6.3659165592363625,-0.17231880364212077,0.13766008321558457,-0.15430833164144656,-0.8823580624096738
415,7.009232742911066,-6.4903504787977155,-0.2115935439485284,0.13710129737974688,-0.1524905670418434,-0.8886217207997253
416,6.495529655074741,-6.155943074241565,-0.1991805644199338,0.14015765983661435,-0.15233712260323132,-0.8886447024997309
417,6.600451549359449,-4.9719107806244045,-0.4545108936637744,0.14514816144602616,-0.15152930528940084,-0.8826317724752213
418,6.20718936836518,-4.911448429091063,-0.2541703147724863,0.14853821728394379,-0.14988243850928445,-0.8782772793415888
419,6.88950442141747,-5.6933757678716415,-0.8327881457209357,0.15188979498954208,-0.14943602794142286,-0.8782779506339764
420,7.809981010238291,-6.139958618652333,-1.1150594865071823,0.1529179257965524,-0.14785284629315482,-0.8811736485085284
421,8.184469902621524,-5.9766022007061395,-0.7857696928719936,0.15165100000439474,-0.14499506551258765,-0.8830027481765529
422,7.385523368159983,-6.270405756112673,-0.7343539481617639,0.15161557190044114,-0.14413512631226122,-0.8761653662119298
423,7.214934418416156,-5.645870178430459,-0.53652141539614,0.15078409911312962,-0.14658086630879713,-0.8768051521131126
424,7.455715178022521,-5.3147584046199885,-0.3851053258989039,0.15231826295652862,-0.14730445596151515,-0.87149861431982
425,7.443146116275223,-5.483312993129705,0.0684181434395349,0.1544482490765347,-0.14531801202986627,-0.8706318455353682
426,7.279532550032847,-5.841097681338304,0.6323898277047247,0.15639258645496135,-0.14146507976790834,-0.8780037478592114
427,8.180994513313852,-5.387471735791836,0.31724167458609415,0.15898816277816358,-0.13894648688534425,-0.8873723425435167
428,7.506451482966815,-5.364657891264352,-0.19222824038834144,0.15987358287162426,-0.1355658875814646,-0.8826241085633117
429,7.236746156205675,-5.118744192414606,-1.2436202898997366,0.1589054845423123,-0.1339953333415113,-0.8818209797607033
430,7.50141152356856,-5.166483312957536,-1.4323216268700065,0.1572147161927332,-0.13393027883598654,-0.879042190313797
431,7.753414661952143,-5.429987832344889,-0.5737626927067823,0.15533059785456504,-0.1343776414939144,-0.8762486667578626
432,6.571358825423501,-4.966767024823512,-0.19468178361202917,0.15289992752603393,-0.1335132540825106,-0.8873638077471417
433,7.971472082675199,-5.840776758584081,0.107946333826326,0.15532235051882062,-0.1310274620438655,-0.8892792505552
434,7.899516223656901,-5.982742250603581,0.6030285724790625,0.1578485497161443,-0.12973430151230866,-0.8897264190852607
435,7.57657682515495,-5.057444641407692,0.4275343106008016,0.16074739503862343,-0.12890840087300548,-0.8868566301577681
436,7.6316041459241255,-3.8841772125734884,-0.32189289369758145,0.16406100600026916,-0.1282766694405118,-0.8806605963750254
437,7.73796991948798,-4.776807198689808,-0.24126434775677347,0.16736391523564875,-0.12830238067244595,-0.8738077220839826
438,7.610940259964268,-4.6082637314943184,-0.1760013513054246,0.1682928937265419,-0.12831840933818028,-0.8794958874420747
439,7.441076643433844,-4.885531279078255,0.9861487745228483,0.16734068976300479,-0.12458671008335596,-0.8798639143386946
440,7.673558239171651,-5.069298217755829,0.9091651587663443,0.16688338237539974,-0.12314289762928207,-0.8797878274624682
441,8.0368759857757,-4.889438713034318,-0.6491526278534554,0.16750999554886806,-0.12492199601263877,-0.8797354773433201
442,7.31974927713251,-4.470665445259903,-1.1615449932093307,0.16748004111625925,-0.12406309897441456,-0.8737520461624659
443,7.613209573447916,-4.846004223614681,-2.005046313116298,0.1674933454860135,-0.12153893645988956,-0.8719475048385513
444,8.560221860949103,-4.760195470038775,-1.3844232594572483,0.16939429191446756,-0.11901040913775786,-0.8783321808686934
445,9.04991034983979,-4.653815337160282,-1.009907285214269,0.1719396149383874,-0.11730438554921754,-0.8811232573294103
446,8.707198818522924,-4.632821556119382,-1.2306808754467737,0.17386591362238418,-0.11567735029813016,-0.8784193877102258
447,8.069966763325906,-4.342073563354136,-0.6161269342318265,0.17392420536662248,-0.1114216784066461,-0.8809611778207064
448,8.104919810666962,-4.114470030778493,0.08684516802520714,0.17471220480122254,-0.11218890700496391,-0.8768067554940393
449,8.350710529958295,-4.142517180556058,-0.07963098223278565,0.17249705096108345,-0.11177095352914962,-0.8788121831680017
450,8.445621244791413,-4.193433417867795,-0.6951959064447469,0.16960571534598914,-0.11048397802308307,-0.8847479254370703
451,8.308101069213524,-4.257634377160398,-1.1444126700271158,0.1687047369917517,-0.10957602056628049,-0.8892277771096276
452,8.188259089044292,-4.6069218308475195,-0.5908695569389331,0.17283364037783172,-0.11131529307089211,-0.8832330838629501
453,8.484358340298371,-3.3793411302079996,-0.6474093067384487,0.17541333884838248,-0.10717011351208172,-0.8839521130203328
454,8.648801612883467,-3.400791282186726,0.23969814289196073,0.18037721513796684,-0.10546415971463735,-0.8797385565338264
455,9.04001275344643,-3.85076195720137,0.4003208920195359,0.18380191300565363,-0.1050626907476111,-0.8808047268996748
456,9.460195833096193,-3.9786715792581244,-0.31537008394885535,0.1846856870411775,-0.10426993767215566,-0.886904711938638
457,9.037620497399065,-3.165670076822404,-0.22749721948577903,0.18554549489586125,-0.10086917157430822,-0.8851743969472761
458,8.750567798419326,-3.743170097077693,-1.0160131948901352,0.18387255303564437,-0.09996294956798396,-0.8792517156865096
459,7.731398839381015,-4.213654355701481,0.5147698725144495,0.18339683674308666,-0.10035843310402351,-0.8739083771681058
460,7.450146425466357,-4.106462663593647,0.48880304231946636,0.18337861921333645,-0.09995578119363735,-0.8704532364081974
461,8.262997469867772,-3.637169477721912,-1.3532443754180101,0.18340875295967862,-0.09805022814990215,-0.8722193140907174
462,9.243391500408835,-3.785929339543982,-1.075030004110658,0.18351600108684732,-0.09551026503210604,-0.8850192631636472
463,8.873604886032764,-3.645305088987987,-0.05741097379108456,0.1851915829752891,-0.09381525848016962,-0.8851218437379946
464,8.660787782050296,-2.9021894325796325,-0.8547661806007087,0.18565196201613154,-0.09022044391520513,-0.8838357373658055
465,8.395991012650754,-2.9075009313660827,-0.9209487708950674,0.18524253761481926,-0.08720930978757717,-0.8795941819845972
466,8.241052310385134,-3.790507265292769,-0.13257416043487105,0.18397721925113264,-0.08610671757052361,-0.8744194941981634
467,8.788282557181985,-4.324348824202304,-1.0868934817387403,0.181459405112164,-0.08693278564591941,-0.8744384110360576
468,8.127608368109486,-3.223284102987151,-0.7740833629869659,0.17985633158188558,-0.08524057610273655,-0.8837715806842542
469,8.678986188609025,-3.323542666361295,-0.9496392778311242,0.18316301416054087,-0.0854722713030435,-0.8842548291416711
470,8.857790328127905,-3.2143023970882245,-1.0974285037868583,0.18611460650507056,-0.08466805231823307,-0.8829382502617905
471,8.477461326892234,-2.6439665757328124,-0.8721671174534159,0.18738106094560364,-0.08212411523910554,-0.882081029653736
472,8.872121663192512,-2.6285645497733854,-0.12454540604492285,0.18989451164024354,-0.0795898860107844,-0.8786371552546228
473,8.445364537057257,-2.6632603190489386,-1.2930764735326559,0.19244868963706466,-0.07791296549007863,-0.8828518049840248
474,9.185809162076833,-2.426458071739587,-0.5044072052160262,0.1931150360795685,-0.07685531247717267,-0.8858386473236838
475,9.591355296608482,-2.630911551301277,0.052789525798867185,0.1943709181403496,-0.0751679392993746,-0.8845645557673246
476,9.452451555799684,-3.0410722611580603,-0.4128764537547738,0.1956274614158365,-0.0732526839281568,-0.8800570736547572
477,9.912086459661595,-2.435836039497914,-1.2210921327427915,0.19310159266923585,-0.07322402459229321,-0.8775091642785938
478,10.17808762590986,-2.743833385285564,-0.59475167077757,0.19389670580668417,-0.07407823032707726,-0.8732407783711654
479,9.642081393219865,-2.664065981031464,0.3128722398894479,0.19291025187156402,-0.07173625669092643,-0.8785608842764323
480,9.176640685357587,-2.4301857860542038,0.1958458822959923,0.19294068570393522,-0.07046039824659268,-0.8815486836128537
481,9.09968152488564,-2.273035423370067,-0.662456360746847,0.19459926941888345,-0.07004652173198637,-0.8785465076314265
482,9.16717092240566,-2.415630368499109,-0.3862089529548797,0.19628374787756492,-0.06579874197191343,-0.874244470598653
483,7.735323970584525,-1.4090852142672186,0.05060114991251671,0.1946336576498104,-0.06066531000840611,-0.8699587046983536
484,8.228488663994698,-1.595725539271354,-0.506261518644584,0.19419438140472034,-0.061949673058976126,-0.8682646105397706
485,9.578026194542815,-2.31510455171349,-0.905670758486568,0.19254527933598373,-0.06320947422425138,-0.8751474083225068
486,10.187107845793788,-2.7323356307232562,-0.8440419510392874,0.19013034665009523,-0.061699821668551806,-0.8862201477380004
487,7.975225121284977,-1.8537319964174341,-0.8421375156456171,0.19018071283896765,-0.058311497817337896,-0.8870522988073806
488,9.123109148207131,-1.5976471115983202,-0.4083481680480629,0.19350519982135864,-0.06004770505533712,-0.8861862258964998
489,9.009382477620662,-1.4721812237761052,0.05966366853021325,0.1962224450912246,-0.05727754843299718,-0.8820819596744097
490,9.031626270568998,-1.2935020666996515,-0.03315046347551698,0.19916764991446254,-0.05519672340524234,-0.8808100355620699
491,9.71934315524675,-1.2624083390281835,-0.24176899057568424,0.20190233737094135,-0.054793772362595604,-0.8846634649271137
492,10.770700989405736,-1.9280402320943715,0.837707626907816,0.20280423108977472,-0.05310239529048056,-0.8922340612436187
493,10.037210315598877,-1.3461270884454297,0.20269116118300634,0.20360560078851192,-0.05054463935616499,-0.8828207660982871
494,8.86559946744644,-1.0634255319602781,0.10756308125390945,0.19930704229825233,-0.047282462447989504,-0.8669710970286422
495,9.47673620170867,-1.3377433756361878,-0.14795447202114836,0.19546303477381843,-0.04640753157212073,-0.8486184271133967
496,10.893410162973238,-1.8019216281147683,-0.24829393450485077,0.1926090599139724,-0.04674572234953026,-0.833370404155716
497,9.280696495148783,-1.5239373210272777,1.0032159696772733,0.18678119689589695,-0.04328761155095596,-0.8282185295120696
498,10.722650601923952,-1.1127525572135497,-0.8902707111531718,0.1842220124919562,-0.041546362915071036,-0.817975119971448
499,10.058629602562243,-1.62653343889394,-1.021402998577793,0.1841955664951531,-0.03982877728453191,-0.8064194134653252
500,9.484740070552665,-1.6028018118749303,-0.7028852963078863,0.182435218622838,-0.03635634269275391,-0.7953254490457016
501,9.517091518448522,-0.9819416555908207,-0.4380398049493967,0.17908407787330932,-0.03252853016247533,-0.7832961354146105
502,9.199809710946047,-0.9293787449582691,-0.03805281540427296,0.17810184094206707,-0.032479910683162264,-0.7663807972560867
503,8.617926361449658,-0.6006003264281182,-0.5361827465328615,0.17391896813077887,-0.03073102221597532,-0.7638343783040705
504,10.100767573847413,-0.5896916178806737,-1.0931925741599275,0.17100204830436028,-0.030293470633917893,-0.7619374060479814
505,10.807062693723088,-0.9228499792647566,-1.2915329336866312,0.16846122875206943,-0.03026210628344967,-0.7571795521350584
506,10.228947628500284,-1.4147848214374892,-1.140155967887369,0.16634655579862467,-0.029783284910345105,-0.7495023564053598
507,9.840887116528231,-1.6799771052111467,-1.0112466069242085,0.1655002268793967,-0.028061567080039988,-0.7417527723914008
508,9.374032816270644,-0.5475230715218147,-0.6908671952651537,0.16627679887850189,-0.02635228362725883,-0.7297809950940722
509,9.791638260372602,-0.39611917239496536,-0.9521119334569871,0.16450566180576776,-0.023966174400710052,-0.7184744504080507
510,9.709112607994529,-0.44605269132515035,-0.5137441449946124,0.16324762635217027,-0.02314387248228414,-0.7108930685395005
511,9.137730675664308,-0.43591212773747257,0.11060759275007001,0.16253777608920192,-0.023075091986779282,-0.7041289830961632
512,9.230916497063658,-0.5228887269021346,-1.0001549896427515,0.1600056773306577,-0.020505529708333706,-0.6904367390786486
513,9.63135235048053,-0.6311859297219836,0.14508674620579298,0.15991549709446343,-0.019635165951317222,-0.6750574437811726
514,9.448158281574901,-0.7739259383680722,0.4930373059032317,0.15601129353125232,-0.016768681084758957,-0.6623123228884176
515,9.637769290544629,-0.47871413103196153,0.468008752324846,0.1539512045045386,-0.015088222388304887,-0.6485892316064465
516,10.10457888921075,0.010725345380799774,0.06513469349355203,0.153362970546967,-0.015068182635421173,-0.6364254586541167
517,9.911116487369496,-0.10832590906684876,-0.9999533941861192,0.14917423767877416,-0.0150217117268398,-0.6331142010331633
518,8.770933149936125,-0.15595928058282185,-0.2033981682653919,0.1458330024647858,-0.014988703403078212,-0.6339878161743813
519,8.990092360198155,-0.015518132616357191,-0.24812209075347982,0.14440215945198057,-0.013658179259760162,-0.6295849676324513
520,9.442240601229603,-0.012213489881006331,-0.3154903261548546,0.1435251275505569,-0.012379062815194658,-0.6213828066051368
521,9.76962473460204,-0.09863969944884365,-0.20685950726095714,0.14240326601739084,-0.011503272789275858,-0.6109037551813418
522,10.183357651419945,0.05405987749492132,-0.19140197775173787,0.14059555937642618,-0.010565301158899228,-0.5997322846165825
523,10.151111014185656,0.22595390853613068,-0.07693779113049161,0.13551551926816247,-0.0070893003760380885,-0.5852239189360421
524,9.522392218636202,0.7001143893254788,-0.043224954929039855,0.13166173140836077,-0.006908471341296789,-0.565448379323113
525,9.190465349466074,0.3561246049674502,-0.17786015519630097,0.12820850009259024,-0.007261282492301733,-0.5494746510246109
526,9.583577825764596,-0.3728977720739512,-0.3600608982882529,0.12482064305926413,-0.006752793172905693,-0.5423582186822818
527,10.707792475932498,0.062496210846576916,-0.315401034488346,0.12157120266683198,-0.0050199568649635954,-0.5454977251033151
528,9.85927275288681,-0.03215342163689743,-0.15961392997287263,0.12069672576247228,-0.0032970231460060073,-0.5369531805583458
529,9.918329373548877,0.1576362464317243,-0.4602188222597887,0.12111359835721963,-0.004231608213575172,-0.5317218815950354
530,9.977289822313697,0.46574920876293013,-0.36685460262435504,0.11974880460334816,-0.004130435283666038,-0.5310485455555803
531,9.990530258674523,0.7447537153894633,0.00497729483063317,0.11709179453394433,-0.0028668637909422265,-0.5286695006440613
532,10.48810926835129,0.8537884040269281,-0.15778702115749305,0.11613311101069826,-0.002884637616365805,-0.5131629859264878
533,10.209921860568898,0.6261344391662943,-0.9427324115215875,0.11431121395154384,-0.004546590133203349,-0.4926815385913722
534,9.766749693262613,0.7731361055135164,-0.7820966226102715,0.11060303819877651,-0.0035469087093299625,-0.4781739001347939
535,9.403108928139105,0.8447512319424673,-0.7390051004888215,0.10899154711815603,-0.0022600544566306717,-0.4640113245105932
536,9.33640421536909,0.789910244642938,-0.8247601083804718,0.10928396246318241,-0.001395782781035485,-0.4505338176307297
537,9.73557719612816,0.8173376272490458,-0.3612237050216153,0.10837750503869903,-0.0005001923273688881,-0.4420933685964178
538,9.821247366690905,0.40294765129588694,-0.4408428740913716,0.10668765652735411,0.0012270913580425488,-0.43696954673710875
539,9.371284839632175,0.46558338871976496,-0.5589617035588486,0.10431731424795183,0.0009695508934684256,-0.43052734648032387
540,9.386291643875158,0.6250854697145192,-0.504703850686189,0.10132719293708711,0.0006059364157767052,-0.42552607955192717
541,9.863559776221097,0.7004372803275837,-0.29891118606577455,0.09796401629506529,0.0008830225910369388,-0.4226081921291278
542,10.102974653240793,0.6632635572554813,-0.14147628868261128,0.0945861801350601,0.0017170926013359653,-0.42069797132342773
543,9.558150871909259,1.1484047346754669,-0.6296678825007703,0.09033987184676143,0.000918477342604191,-0.41218561114639807
544,9.797400917016624,1.0232801953344364,-0.39037451112660154,0.08671380109453156,0.00011910307772028332,-0.3983220125308531
545,10.066040589602459,0.9905858746846219,-0.19741977440897385,0.08326325918786562,0.00022947868235411893,-0.38205577342813757
546,10.08293306530586,1.1335977052695503,-0.30043757026310586,0.0812374177420225,0.0008804109065090515,-0.36498082524034453
547,9.873472842758261,1.1329005352135888,-0.5884205793509506,0.082686812368046,0.0009145626221443745,-0.3480052650197824
548,9.445121989944543,0.9119490887772588,-0.5229206245801629,0.08093462288549311,0.0017998623237343843,-0.3343445029928089
549,9.445616287802318,0.6511831727693604,-0.5206992142306233,0.0792442630351377,0.0033430750982537203,-0.32939743433430474
550,9.506296160145466,0.7491570782021771,-0.32270129800157826,0.07935819282109649,0.005049731802426258,-0.3259108257241896
551,9.568631567244353,1.0175076343984366,-0.1765456992639404,0.07956801604792382,0.00627071493102276,-0.3199208547870605
552,9.744272706121556,0.9114369399705582,-0.5902896443478628,0.07615650076540512,0.006222423394833098,-0.3099754321636377
553,9.543092193227022,0.7914743012053885,-0.2311080279269364,0.07276824322783354,0.00370400188200637,-0.30744496234854735
554,9.574286381471163,0.8688562826132276,-0.20368305734872771,0.06740972021623245,0.0032210099749698253,-0.3028978414652991
555,9.644045516371147,1.018831067666564,-0.263886114069381,0.06240161803311452,0.002822104696391251,-0.29550562668729663
556,9.763080371052364,1.115693902441794,-0.3396505966902192,0.05838811316808691,0.0020226778354688387,-0.2856439995793786
557,10.03545264926025,1.042655617826093,-0.4524664623287244,0.05509315455473828,0.0011836227385375593,-0.27456269192762217
558,9.851117394622435,1.011831062890356,-0.44127008158454617,0.05500523045585662,-0.0005068257356221142,-0.26346727422292204
559,9.667923095468476,1.1049277285769734,-0.5645124981473322,0.054274136560887656,0.0005041044469148056,-0.2510123272520626
560,9.679740152606868,1.2105301195538494,-0.3241313096116129,0.05382468400637888,0.002227215524117495,-0.23819376902078992
561,9.85685601084895,1.2711350955121983,0.029483820141148184,0.05327315242413569,0.0034533315695752386,-0.22637416074563213
562,10.011806721110139,1.2641900216375033,-0.16786655231133873,0.05146945559062538,0.0035544664976866706,-0.21688021223552356
563,9.662869228649608,1.2512583655628569,-0.41528130597649315,0.04806284570068198,0.00530711068436132,-0.2049330103138669
564,9.600101116201243,1.0895123083815852,-0.43466599744923407,0.04530150376165523,0.004349563750333206,-0.1943497727281
565,9.702366837598206,1.0731409597782864,-0.3763786985504403,0.04226633918037409,0.003613665224756541,-0.18458524671971632
566,9.794817837480952,1.2411726818886464,-0.38917894547289683,0.03910131542866363,0.003406557777832296,-0.17495770877463512
567,9.692882769309714,1.4613422406784498,-0.5989012179155845,0.036555036671485894,0.0026306566872557426,-0.16476459137984653
568,9.829570007735631,1.2783272318411998,-0.5913155536212633,0.0348210637112134,0.002659152644577865,-0.1553785617494332
569,9.804332908731304,1.2354104751870196,-0.4854791037566336,0.03377478809792591,0.002676728028408886,-0.14938523592043493
570,9.730075139839432,1.3154890864030633,-0.28993381086197034,0.032438362836533424,0.0031639603495446514,-0.14193395609259604
571,9.6822515843425,1.356645837412126,-0.15232759721207406,0.030954864091155086,0.0035365874022542576,-0.13229177349497073
572,9.711405618146404,1.1471118818065351,-0.28162416895472064,0.029926022038427466,0.0027473478965226073,-0.12217197518733158
573,9.73643285898496,1.1997295970856399,-0.461405268090786,0.026530039831796005,0.002790779798418265,-0.11450447882741872
574,9.60438752272121,1.2378475412686032,-0.3452903383332028,0.024473966440525213,0.0028197919000062105,-0.10751053227668625
575,9.627682157227877,1.2414523273899343,-0.24533043526159065,0.02181640746878382,0.0023907555129750965,-0.09788319783301419
576,9.756234618489673,1.2417862069780607,-0.21663545554318486,0.01839373453123222,0.0018413712204576151,-0.08696983682507074
577,9.75272790297572,1.2929719933417552,-0.2024958724913099,0.015033847287947644,0.0018428613210147717,-0.07849089783173684
578,9.7007482489264,1.326536454184026,-0.6302925227639797,0.012465961399434407,0.0010253840070396762,-0.07082186065290814
579,9.75086811540622,1.2798669271725704,-0.5741147755619631,0.011912196952842015,0.001553843517384648,-0.06176713376575303
580,9.765950002855043,1.2536887938919326,-0.3610525481811734,0.011851113816953937,0.0014780976540680728,-0.05237169690796244
581,9.771432808899666,1.2718291113093145,-0.17934600834777448,0.010770039701920524,0.0009056403832613845,-0.042211512150370764
582,9.862797893172692,1.311186752850846,-0.14692765782861988,0.007391567417738313,0.0009984334129794273,-0.030362513816533536
583,9.84835910038122,1.259551247331793,-0.2662960006927561,0.004824014188806579,0.0018888827053862895,-0.020122470557819273
584,9.518904968645423,1.4153591478116838,-0.589932150715481,-0.00045349541770950885,0.0014392428175450224,-0.008533971384784813
585,9.254794504831157,1.9365883734471865,-0.4365874773069971,-0.0022409702832448587,-0.0012682191375571203,0.0029279980145764987
586,9.195541994191402,2.23539806383799,0.15914977127974334,-0.003916323708482673,-0.002134289808059354,0.007518517077432409
587,9.310208414321606,1.4831160716709844,0.7647659403099816,-0.013351108564891396,0.004482417025098182,-0.00388425882862768
588,8.88137626841494,1.3590817060759495,0.848433958019274,-0.029034322749833395,0.0063106317052229,-0.03471876240195701
589,8.713120567536599,1.5487586710060952,0.483927478825509,-0.04013890589129812,0.001929056861550941,-0.05316919806996257
590,8.944010706223438,1.5607671257622198,0.36242312654256376,-0.05432081027421424,-0.0034345538119658794,-0.06912988505134854
591,9.339548455462051,1.4721534944432852,0.5210925057793336,-0.07334742396333033,-0.007591131075214062,-0.08916320360532592
592,9.465333594602763,1.6263993031761985,0.6391523731905471,-0.09530709319100492,-0.010151504465942885,-0.11675611616787539
593,9.00329222527562,2.007381528625555,0.08725974457738361,-0.10949125706471136,-0.015987545988828445,-0.1322432227175876
594,9.17610415299301,1.8964172805463724,0.08344484210165215,-0.12633446202766546,-0.016287323454524008,-0.1463388350780358
595,9.461067521193298,1.8078007577571165,-0.05696967005136873,-0.14192626912898162,-0.015294995902047654,-0.16200328822152632
596,9.72714279938693,1.7980440546496264,0.07120155359086261,-0.15630652520695804,-0.0148421561380403,-0.17758391221347547
597,9.933536589135434,1.7479695136159443,1.1264518425615648,-0.17120075035417212,-0.01576099045525463,-0.18942914046654385
598,8.808273337586321,2.144512050387267,-0.027482095320743277,-0.18457549264252188,-0.019894804058003885,-0.19807058383410625
599,8.964961377919806,2.1199064055770585,-0.12715818210402954,-0.19930789833330115,-0.02193780688900079,-0.20324652040339206
600,9.53883680576618,1.6298921089912926,-0.021191608061401343,-0.2138724808693458,-0.02350114510636319,-0.21000938466195285
601,9.864102445968513,1.037390384689227,-0.1314531127534489,-0.22804727636446967,-0.025338999543306377,-0.22077725447146707
602,9.415262961411981,0.8708073077634665,-0.6126509262065377,-0.24152455535380848,-0.02788008300198691,-0.2348512465261028
603,8.624498409532091,0.9997454803675124,-0.5532212999728123,-0.2449569373403089,-0.03209729224290394,-0.2280585689399044
604,8.75215673676163,1.338160185610081,-0.9299093871617841,-0.2395417402770387,-0.03362735434614939,-0.21703139359466178
605,8.829078727039708,1.223919236547113,-0.7733007288117546,-0.23478231838857413,-0.030689109188234816,-0.22189349910777756
606,8.794211726887974,1.079232220001151,-0.2183585588342271,-0.22896572293013817,-0.025069536696291066,-0.23600657942609127
607,8.977529122074362,1.6914407139500243,0.10813754615522521,-0.21677296142661054,-0.020478249387953767,-0.24110953078050276
608,9.469891956263497,2.0234826223818616,0.007201574113159798,-0.2109627169052795,-0.021382143569139613,-0.23510083171415375
609,9.595449377128036,1.8529277547772387,0.10330931377000971,-0.21675038384467984,-0.02356262927973072,-0.23265117305803906
610,9.502473797589705,1.5893429470846099,-0.25870529914130175,-0.2232744509329291,-0.02653048133828638,-0.2290594444532577
611,9.450689043567303,1.3727755364651704,-0.7194380335143463,-0.22754803178980298,-0.029620658290078584,-0.22614253685519844
612,9.666550314140705,1.2509023978589953,-0.5885331235669884,-0.23029949980416972,-0.03197577010228349,-0.22753091278212464
613,9.271408684747472,1.4989791038795026,-0.7743156689775454,-0.23617833653548864,-0.03191201012725803,-0.22414872159460555
614,9.114616461555586,1.4964851696367942,-0.7599110404820516,-0.23929977411476816,-0.03187953550347619,-0.22354712084107747
615,9.337482911958466,1.4980251553707515,-0.4614570370656005,-0.23940831499865312,-0.032368160067423046,-0.22743972887437908
616,9.776610433659553,1.4489867466794277,-0.2873323566686021,-0.23770547400166034,-0.03297162186403657,-0.23290002517528688
617,10.090207016753258,1.2598037494881087,-0.7155412822353278,-0.23601932249166854,-0.03305128657367032,-0.23503166154888833
618,9.620464957937326,1.9052331846042116,-0.5135042183962766,-0.23437584670595787,-0.03391574613163216,-0.23160939412691503
619,9.417487380713018,2.3905039568855058,-0.7562890259646066,-0.23274862325093992,-0.034076640156735206,-0.2246763431706418
620,9.501579181503805,2.1966862580075097,-0.5686631737573897,-0.23490284677034395,-0.03259066238630233,-0.22236669796623026
621,9.59032684925899,1.7385491069660461,-0.29761986445891786,-0.2374706119561861,-0.03138450818450822,-0.22436017440448633
622,9.312678108744816,1.739355816834983,-0.6316153951426701,-0.2349065289657714,-0.03317894817277339,-0.22604258703299565
623,8.834272774253876,1.746779264489647,-0.3367876010061699,-0.23164516838262936,-0.03575713140339879,-0.2166395785694111
624,9.115064053975196,1.5257220197059542,-0.36166063929561176,-0.23310094680678184,-0.03479128765190787,-0.21850493016609843
625,9.500007373403989,1.5220195168823407,-0.4782753680417836,-0.23317073412298162,-0.035051212820543555,-0.2247397096409669
626,9.716901422916806,1.7239236571289536,-0.5632098699597147,-0.23147912249362063,-0.036224088339513655,-0.2293692619117397
627,9.696829331249967,1.9284053668513088,-0.5200745040349073,-0.23019692975953096,-0.03623501152003626,-0.227524500366151
628,9.949026912007763,1.9539250060311568,-0.15460485436288396,-0.23356553846984174,-0.03619679140720759,-0.2241275597568026
629,9.52674565009463,2.267461145045678,0.08036565742928031,-0.23557467909163254,-0.03757825092278039,-0.21931750574446618
630,9.105395040186119,2.144602256951886,-0.26251365221154044,-0.23826154015454437,-0.038756427305935134,-0.21372096592687956
631,9.144546844310355,1.7041953427836989,-0.6757019516791669,-0.24137291569100094,-0.039850745262559356,-0.2094442474548263
632,9.770655357294217,1.4029919495310985,-0.43574830992312386,-0.24370555658763668,-0.041397274561480554,-0.2089456473884784
633,8.706035035469812,1.6086684798526412,-0.5615530272048904,-0.2436836567626599,-0.04140144418844537,-0.21236225235527437
634,9.05322329655527,1.5607131922112036,-0.3819318345069047,-0.24020046373241233,-0.04073244220024556,-0.21363158376013364
635,9.324009591550613,1.5724382050486176,-0.22180981629716928,-0.23645760938295657,-0.039430373410785466,-0.21841748022253982
636,9.367108845997286,1.63767534541091,-0.07543244791572731,-0.234427204175245,-0.038037521705403324,-0.22636832676926585
637,9.501505394180127,1.6737378246815249,0.13070260919763016,-0.23500737831973006,-0.03760189504196548,-0.23415255058471662
638,9.768623060822325,2.0192426673520685,-0.04871666435163308,-0.2333809755645917,-0.041876680496182844,-0.23330882755556762
639,9.620765107034147,2.4482486309204985,-0.5206347381287392,-0.23454639880510691,-0.043283312035658564,-0.22678679934910226
640,9.287085117165425,2.487293926982253,-0.606609712841335,-0.23677361842559724,-0.04310849420818574,-0.21612825188114254
641,9.263134575255647,2.167746461513589,-0.48305254552692556,-0.23767067396271163,-0.04337161464289658,-0.20758525666323738
642,9.876871582984037,1.7766068949552816,-0.5613958994428705,-0.23553065019076597,-0.04545193501080379,-0.2075114430975977
643,9.063004962637994,2.0638095237966847,-0.43147903581169733,-0.23717559154615023,-0.04202667219141783,-0.20665063014355403
644,9.035099187007726,1.8840953903505975,-0.7287464103711846,-0.23467805824009547,-0.04219420648469963,-0.2043575196369549
645,9.217914050240024,1.9019454269231728,-0.7845031508436726,-0.23474850194841784,-0.043047983760695366,-0.20679368176887206
646,9.395573856225603,2.0696092109368003,-0.5264017643987841,-0.23890923984165852,-0.04415108492103755,-0.21366217479007735
647,9.457289150136118,2.143011073205603,-0.12211366311748868,-0.24568841198771058,-0.04616175122679446,-0.2218129563327189
648,9.207979327936616,2.405810904924912,0.11018397154368706,-0.24488864784162345,-0.052137230350930736,-0.22525385841590145
649,9.271931759504673,2.3583800970556905,-0.3788963172844445,-0.2503738560757156,-0.05376734531427334,-0.22442365443466608
650,9.339975166840254,2.4805452959573344,-0.7702382282449516,-0.2516833010585146,-0.05410242666232308,-0.22172161659477974
651,9.24039255461145,2.612019640665724,-0.7867122652359104,-0.24863589824511728,-0.05268666463208511,-0.21510511503278282
652,8.946496424619578,2.422538234788343,-0.41330706505021014,-0.244639430324855,-0.04868021120221295,-0.20285416089246233
653,9.224202539308926,2.0048871859422204,-0.20486494800378913,-0.2421507773298469,-0.04699445445542596,-0.1968518043413507
654,9.190508391911354,2.036156522645494,0.1142213786151548,-0.23892827676084522,-0.04675454952075687,-0.19802052894714212
655,9.046607196785313,2.016108837696483,-0.07430482709101277,-0.23754576304035027,-0.04777731842285114,-0.20108372191599058
656,8.92672149736255,1.9500052039394191,-0.5049187845736697,-0.23783845574873091,-0.04947983328929789,-0.2024745969455755
657,8.959841695223288,1.985463366271018,-0.6461584596278667,-0.2389334006623852,-0.051169805067293746,-0.20047133491697444
658,9.376160220710677,2.0783186505090008,-0.32902201418463317,-0.24227574610338892,-0.052843915734354756,-0.20391595683564173
659,9.350074526581349,2.110159485395247,-0.27759333824463717,-0.24414590700535665,-0.05238839722110516,-0.21381315461798367
660,9.348881082446912,2.3850819720615766,-0.09362408583312881,-0.24381423289797083,-0.05305908281915174,-0.21834078136305501
661,9.449610311558933,2.7765263024324596,-0.09930781214645391,-0.24503161284317332,-0.053578939832203604,-0.21600605253672833
662,9.559402832488953,3.0146994587334164,-0.6379463707778221,-0.2511304645457412,-0.05236361424676336,-0.20920214915943464
663,9.246081028913984,2.85617557765191,-0.4926798541775273,-0.2512161376469077,-0.05661487397354313,-0.20238980721578878
664,9.360669728959435,2.4866196364025663,-0.5403073032802514,-0.2519754468534951,-0.05942372150051355,-0.19845932681074438
665,9.16584587456127,2.3157575297689528,-0.7116620974210149,-0.2518158546528285,-0.05944673449421883,-0.1985994303011367
666,8.86472147757019,2.288242983538262,-0.8211493889851129,-0.24922046923279728,-0.05777050250363049,-0.1996626199888727
667,8.867383315484682,2.2507552157672537,-0.6906191017357984,-0.24399813405583917,-0.05603679534783818,-0.19840867402517967
668,8.91310615932436,2.4465734672370907,-0.4732254200704195,-0.24478759259657906,-0.05347685488758223,-0.20181767391711028
669,9.330980061749308,2.1840169154403277,-0.6568603059365395,-0.24275741398143946,-0.055279790124663386,-0.20957123825736096
670,9.468414708879216,2.1986245951372387,-0.32283121422159744,-0.2422455892794326,-0.05733541463849268,-0.21301557262910192
671,9.242967812561822,2.4778138234229825,-0.141611089321727,-0.2439694675689386,-0.05842778516881898,-0.21273371761961946
672,8.877832524182772,2.7462476296509224,-0.8321120577013786,-0.2469933230869555,-0.05864867023754177,-0.21189872499993112
673,9.435651219026836,2.5392062472025865,-0.07927906441816512,-0.24702391925690673,-0.06120322753899332,-0.21105729422665073
674,9.261212211026997,2.7730405902214548,-0.40618116943727384,-0.24915999700564578,-0.060115833707173105,-0.20875913386710698
675,9.104921569172763,2.9810499642301296,-0.5602330337457155,-0.24819773769856163,-0.06045981380489363,-0.20260388137062113
676,9.082789084544277,2.927129445173685,-0.5043312220701938,-0.2469652735008776,-0.060971079260239584,-0.19405714797976167
677,9.140206083733666,2.5183427173578217,-0.5218089531165798,-0.249848559085668,-0.05957479663481594,-0.18673892825572982
678,9.3182845281618,2.124965961716314,-0.653568085456089,-0.25570034711963985,-0.061223375430876095,-0.19019829498126162
679,9.073965344893072,2.168648740253998,-1.042842450989186,-0.2558702827159266,-0.06510684593324137,-0.19363481551075884
680,9.149952744044455,2.2949726049143164,-0.6964449394047225,-0.25755969844317805,-0.06678395402092827,-0.19552506342829926
681,9.327250253277683,2.407045268463742,-0.34016829876665394,-0.25733576557992205,-0.06679035703259376,-0.1990944329896842
682,9.176265915212795,2.49792046335042,-0.7999109633732051,-0.2514570803696661,-0.06650513177671395,-0.20715616420503044
683,8.690641184326344,2.70112133739206,-0.3356882465135017,-0.25306917455738354,-0.06308612290849787,-0.21141985778532005
684,8.90264139852352,2.821613773248509,-0.06430166012166004,-0.25118181709480447,-0.0640655206417676,-0.21057379215235422
685,9.317773237652151,2.7008214938176094,0.019719244853329154,-0.24919769397445968,-0.06527250012514396,-0.20937651143934233
686,9.514587017393211,2.6164394007699565,-0.29332457585722466,-0.2496318155363655,-0.06642087308893743,-0.20761849585459285
687,9.228413411641547,2.8621162867474896,-1.0210089691538236,-0.2532321098239533,-0.06799234779723999,-0.20368453347492885
688,9.040709105352395,3.074800319727266,-0.7305353231354792,-0.25162227449455726,-0.06885134503719943,-0.19513776805098448
689,9.219784988976377,2.8243561513744755,-0.40815153316852226,-0.25210920246114316,-0.06750330268719767,-0.1917177853931847
690,9.428645997335966,2.7557911297931423,-0.19720361622205534,-0.2514096818090244,-0.0668428002243944,-0.19226332179596184
691,9.417672615622804,2.7303669818042042,-0.18568721337327096,-0.25123129688032486,-0.06684545286762683,-0.19298746436501824
692,9.030832824472146,2.5269540113948046,-0.39082828400282504,-0.25385020862683605,-0.06709516120123309,-0.19072119611228355
693,8.491784560257003,2.6809244296698314,-0.5517036395767572,-0.25722204001077653,-0.06961671017892304,-0.19075338048022128
694,9.168116297456834,2.675872282861584,-0.9486925090994242,-0.2598370043448681,-0.07215274671704289,-0.19665654734383547
695,9.176786294157328,2.7337101560757753,-0.8497122618962714,-0.26080267962991266,-0.07366335411791906,-0.20089598087961602
696,8.81366733674711,2.8758014927873865,-0.6681432072904727,-0.2583795558874801,-0.07392615602608776,-0.2022115979802867
697,8.788527756626847,3.0670758004688845,-0.8442753732191397,-0.2527088114152084,-0.07284559991214529,-0.20131807772865076
698,8.907888443703033,3.2614897688021833,-0.22822158243390267,-0.25519101906295716,-0.06941181847789624,-0.20046218432519164
699,9.287075125214153,3.3540445051410255,-0.33192214902539624,-0.25194610285826496,-0.07117918002104301,-0.2003339891652791
700,9.17605528781573,3.3555937958024757,-0.6416711578161124,-0.250356861298287,-0.07218046467645359,-0.19718787182132694
701,8.877141707862291,3.148895700213594,-0.7705317555193314,-0.251307639933659,-0.07247453446329774,-0.19175940097775368
702,8.85971069078028,2.703155776748651,-0.46785331602814495,-0.25366760833238783,-0.07329702476070002,-0.18667668703369122
703,9.020462583858649,2.5888294791840307,-0.054328284151636735,-0.2545015134000208,-0.07414219840763406,-0.18839367556787928
704,8.850673723741059,2.8971870701302525,-0.35260729453729567,-0.2545787430872483,-0.07500104590657662,-0.19527891282016246
705,8.884972920015603,2.9593295870131238,-0.24583953476950415,-0.25249266848172325,-0.0753548918718453,-0.19980072908753652
706,9.129171548155266,2.948387701845994,-0.08652670931289465,-0.25342465812889187,-0.07503499695726566,-0.2011155705823065
707,9.372874916714514,3.1308346580105093,-0.33954261078265,-0.26111179310383054,-0.07480106636991188,-0.20020618370791213
708,8.956075098134072,3.1811635799300717,-0.18095763024218492,-0.26368321346474266,-0.07988464111061572,-0.19853807158317974
709,9.07497763252014,3.461328095992506,-0.7351367381509737,-0.2662350714001807,-0.08200984654280993,-0.19537311421897116
710,9.272701594791812,3.262962922325027,-0.9906226381066141,-0.2656804049762449,-0.08371540711611643,-0.1919608738869249
711,9.383204299300775,2.8994344500289815,-0.9279229384497315,-0.26286657755550946,-0.08324670134708873,-0.19041511199244643
712,9.297966502370898,2.841503510955013,-0.7602633552667686,-0.2595722492185429,-0.0792252690775187,-0.1915745737199529
713,8.846994874183883,3.117784462631649,-0.6574837646212783,-0.2570533327131646,-0.07669288163566268,-0.18898465402200876
714,8.848305144111702,3.272369958936385,-0.43565262559335866,-0.2538477667416825,-0.07787193492232083,-0.1856655745130602
715,9.083542958881342,3.278011793802615,-0.6061794320719103,-0.2546759007366348,-0.07903669250268405,-0.18438035714837647
716,9.1741260378489,3.2475213521875146,-0.7599615887428727,-0.25647757642777197,-0.08113811079088942,-0.18630481660652604
717,8.928048467501313,3.27731421397639,-0.44403713565857694,-0.2559515506851445,-0.08457695069400194,-0.19092249767109756
718,9.259178115519184,3.207925357151867,-0.0037339084479038123,-0.2575939162438394,-0.08200537214521647,-0.1917737583156211
719,9.166087347373796,3.270815646054643,-0.25913230190999886,-0.2563525832145536,-0.08169102185664076,-0.1903823826003624
720,9.194715323003397,3.2648031958746455,-0.5001090329764828,-0.2572805493237249,-0.08168268223195765,-0.19134165676718928
721,9.158976157302012,3.1627389327660462,-0.4863555177833154,-0.2600850518580201,-0.08229561115489797,-0.19520175984781651
722,8.889932527650922,3.027753465997214,-0.2564345863574087,-0.26320536690592433,-0.08408001301623465,-0.20088895680987093
723,9.043465024333596,3.1642381228274217,-0.6796831537605419,-0.2648815513081998,-0.08662276085941877,-0.20432791165839934
724,8.97288672607096,3.3248476687182227,-0.793800077888975,-0.26731199163741703,-0.08840719975673464,-0.20328219941322478
725,9.00894528027196,3.40120987308548,-0.7446379720820376,-0.2651242651273943,-0.0895993086177968,-0.20263608433515146
726,9.126193562084712,3.42773187164301,-0.6234735124257043,-0.2619898185980593,-0.08791438320211173,-0.2006793194780894
727,9.234864046356883,3.444930950884272,-0.47792681583027985,-0.26144083306072224,-0.08292611024629343,-0.19563517672689898
728,9.303207665569841,3.369008162361665,-0.1735468589626993,-0.2573017677599952,-0.08466745908391313,-0.19134838966272272
729,8.99087736887414,3.291936764681497,-0.28177479785990905,-0.25828625488091556,-0.08411146142740471,-0.18633047268711153
730,8.735076736631989,3.3262064696400193,-0.5031922449458843,-0.257919065754475,-0.08539580288634685,-0.17852494887421383
731,8.698742487640622,3.364648134721754,-0.6703783924131212,-0.25726211296412793,-0.08795122915717812,-0.1723759089474087
732,8.902875984631104,3.281121744873389,-0.6568390607058734,-0.2579013313191702,-0.09005851573021768,-0.17253359150032646
733,9.020311499335083,3.057669033696155,-0.38897970750814115,-0.25701267925889376,-0.08922376566141754,-0.1793577144672689
734,8.798329471615128,3.345068034939912,-0.26678221377095535,-0.25833821427395126,-0.08836491515282538,-0.18544297644876923
735,8.84309023982361,3.4571362103149843,-0.2608781357116823,-0.2631454201614135,-0.08800715852062181,-0.19037083382063028
736,8.993029986622208,3.4277555276756067,-0.4383456382521419,-0.2669650493511348,-0.09057456617058798,-0.19435061113752164
737,8.991167544906785,3.4171476359921145,-0.7741481037405358,-0.26705404902321295,-0.09660355688585232,-0.19734480903370974
738,8.819345910688254,3.5124715249048144,-0.7999182909843207,-0.2729193574755563,-0.09739556648418839,-0.19738339484401615
739,8.805192943109606,3.4677233381391637,-0.48603352479987805,-0.26771233986883086,-0.09829848735395269,-0.1958487847730071
740,8.779909214748546,3.6102272425857707,-0.5896838037844367,-0.26416474872228846,-0.09432752262880487,-0.1951828274107186
741,8.82544563990548,3.612953257051899,-0.6932567447554856,-0.2614993198387451,-0.09048393585936934,-0.19350693077327374
742,8.982290159457726,3.277876102398711,-0.4105480983631914,-0.25802779428314493,-0.09136614041764705,-0.18933447839954665
743,8.9351234363389,3.4351479570368397,-0.39907443368276097,-0.2588945465184448,-0.09220506011341223,-0.18592696039940007
744,8.928021732342001,3.516542374416751,-0.3917818621140387,-0.25904020959339835,-0.09455962187189168,-0.18176624077482909
745,8.747575836079182,3.5895447947906374,-0.1990889786117567,-0.2601311504238281,-0.09547522965757557,-0.17913692006265694
746,8.706554818935196,3.618886473142191,-0.046725159479236174,-0.2614867038670693,-0.09579079141440831,-0.1787600338103003
747,9.005451674878842,3.5591687727914634,-0.13542333170691156,-0.26220102600449724,-0.09640393218609247,-0.18082760143503085
748,9.035773139740934,3.382890055856029,-0.2783846934834214,-0.2621652731015691,-0.0955567444043999,-0.18509398123716694
749,8.886987068596703,3.6364306987168145,-0.25883492160413657,-0.2651288144737312,-0.09543267744932889,-0.18634776228969235
750,8.66399492875544,3.7580124690892505,-0.40252462500864666,-0.26690075521392925,-0.09813568925400742,-0.18613405472271183
751,8.569057896490497,3.673783607821874,-0.5270689399089443,-0.2687410902518412,-0.10105017291123243,-0.18663522809227057
752,8.705224901371869,3.480757678446901,-0.4945893298371912,-0.27102363281961844,-0.10200132344944353,-0.1895751098910205
753,8.746616107374086,3.587934518024001,-0.6820732225501973,-0.2668235484266576,-0.10375334737268864,-0.19468417841110058
754,8.820160185762024,3.677350013704393,-0.4105634849094053,-0.2648469271295665,-0.10016462008200289,-0.1936930735409214
755,8.936852240161468,3.7643046358957797,-0.3461777339172035,-0.26263103938987076,-0.09811086216710602,-0.19141351971372894
756,9.041691153280498,3.73422949876347,-0.46493739826085245,-0.26046334878738925,-0.09794603497500262,-0.18883745626961693
757,9.028164406540208,3.5857335147566003,-0.5723341530891674,-0.25929317442116717,-0.09892828952471563,-0.1862732290000148
758,8.618102691262369,3.814804843028288,-0.27731618596512,-0.26100009868409296,-0.10061213233847949,-0.18372875728265198
759,8.848230039713062,3.6571631563487648,-0.35927557049513137,-0.2626995375095157,-0.10153451506153977,-0.18118055513395254
760,8.814507810741805,3.6716692812937755,-0.28135204219888754,-0.26331507265591925,-0.1029273329780849,-0.1802785027614871
761,8.654735350652023,3.751398211325629,-0.2520311079243812,-0.2629904996707364,-0.10396263034156049,-0.18095587152784592
762,8.574583057561044,3.79386911766301,-0.44501850046860414,-0.2627543418848951,-0.10384229894858513,-0.1817940347771575
763,8.40228013024942,4.118093150161485,-0.4845997349777393,-0.2661200578601482,-0.1029514357487013,-0.1775381695212889
764,8.571907956764004,3.954776062319746,-0.43343634102923034,-0.2672577760899508,-0.10513779591828666,-0.17481557973857692
765,8.752331342870932,3.784531708916849,-0.6474440771082014,-0.2702644526542819,-0.10766647917270211,-0.17780549369255022
766,8.853086102134583,3.7509094163966386,-0.6704097271709308,-0.2704498979236626,-0.10988758812130518,-0.1827784436452538
767,8.847047012229435,3.856737086513012,-0.32857712100638764,-0.2650762461613255,-0.11051536595352478,-0.1854088053591718
768,8.783997617039997,3.808960275119245,-0.8741384325826002,-0.2625183489397921,-0.10457602261801391,-0.18365694231780014
769,8.795325666080512,3.729297873574922,-0.6425275082246852,-0.2607457031179823,-0.1039901618707761,-0.18500473924446525
770,8.768196598231901,3.7737137997248467,-0.5397778076692589,-0.26123911435608427,-0.10454047479456219,-0.1867188034920543
771,8.717274857442979,3.9461421545347926,-0.6047613569038939,-0.2622573293368039,-0.10640479440506462,-0.18741814487979305
772,8.667578439686027,4.145764836072059,-0.6950986755618874,-0.2625434310901069,-0.10942417857535951,-0.18670891857164743
773,8.611748440892342,3.998641027897933,-0.49946401359338344,-0.26422554979279395,-0.1102587492832262,-0.186722925088883
774,8.910224936714394,3.857056394655417,-0.341869761770596,-0.2643969372120619,-0.11034039267018138,-0.18595413882752165
775,8.830764462788174,3.7935187659591243,-0.19114632794455427,-0.26548721180388557,-0.10977327719303012,-0.1851035959247703
776,8.54961932090049,3.8221361221024788,-0.23566533682160473,-0.26716653026444426,-0.10958844972499288,-0.1839150869261534
777,8.362559576277125,3.902000591456212,-0.5644988726508757,-0.26873496024964905,-0.11094379259108744,-0.182484268156257
778,8.522830176262444,3.8480646968515426,-0.8735270770062588,-0.26961330670457806,-0.1151940813237662,-0.18251004716442606
779,8.7361595960214,3.9191539926746444,-0.7554024573799353,-0.272742213949086,-0.11711176858868994,-0.18176546863121174
780,8.606244010574695,3.999166313140321,-0.5470367711812786,-0.2695348250497609,-0.1177319533890181,-0.1803364800783921
781,8.41707396216703,4.126836128643125,-0.534655630085362,-0.2652001758687643,-0.11535942193109272,-0.17859103137380086
782,8.46171739320043,4.253689955356385,-0.7148156737123117,-0.2639334091153175,-0.11046754302615931,-0.17724986615458205
783,8.777445662240645,3.977304714150141,-0.18823706590728195,-0.2605895929650421,-0.11135423659907809,-0.17808912644365288
784,8.348667524215333,4.346909820027198,-0.1921620104210887,-0.26026603109150415,-0.11143929499794201,-0.17971555169111292
785,8.353704152686547,4.29656629951393,-0.28368653475654737,-0.26083710208939653,-0.11255094826021464,-0.1780661481184702
786,8.461872186898516,4.11719882221742,-0.27646599858594273,-0.26271832866789785,-0.11388706352644465,-0.17675563411136533
787,8.369216817903709,4.0955585049443854,-0.16721384248242221,-0.26500179821618164,-0.11458296360588456,-0.17861620836428838
788,8.475101298374542,3.9436891751236725,-0.4113426949905099,-0.2616386683168132,-0.11462014057805503,-0.18115839635814593
789,8.611165669267432,3.763516949942969,-0.22214715491809056,-0.2635982030486711,-0.11460316390082487,-0.1837325876080748
790,8.58903205391568,3.9092418230486516,-0.14359901996042654,-0.26666016756112343,-0.11626036511083382,-0.18632148824918243
791,8.497049585156944,4.093749720835525,-0.4562116897919045,-0.2693450667834294,-0.11948874482796518,-0.18751467090574606
792,8.467845256011115,4.125131323512839,-1.0605590738594268,-0.27065891016177984,-0.1233228250526175,-0.18654966238870743
793,8.665656717254308,4.341034771553083,-0.847806450230003,-0.2698501327323505,-0.12503324989068051,-0.18484439203328554
794,8.867415852052433,4.198752845022105,-0.49839511884503296,-0.2674601993252981,-0.12210296199517304,-0.18466457932246075
795,8.749667190552955,4.247072965044709,-0.5903583735070217,-0.2649097466430732,-0.11872267763313005,-0.18576430705138552
796,8.476337587537873,4.433613071837682,-0.7533297880296309,-0.2634233995947287,-0.11743920004423344,-0.18569542585921184
797,8.31242888931411,4.565654477791462,-0.6421710246394069,-0.26359137191428494,-0.11913835384358383,-0.18342093573307772
798,8.652703106099759,4.249839352466399,-0.30155260618983526,-0.2644500774025589,-0.1208328005749707,-0.18258024786438973
799,8.689466282015086,4.197738791924386,-0.3727337637761753,-0.26376714215077424,-0.12176471747073506,-0.18250721591797203
800,8.655746870507821,4.395710750729309,-0.3797434025899826,-0.26406904576099993,-0.1226100517496054,-0.17967434509993074
801,8.648442536143012,4.501940049580372,-0.3980668766906401,-0.2638932166669036,-0.12310536074374315,-0.17575913237808327
802,8.695748956418132,4.335174096034212,-0.46273805459769457,-0.2630718125193894,-0.12296866634563441,-0.1724785381110772
803,8.680828870533611,4.250420698099002,-0.31236239524549836,-0.2664265760123544,-0.1220798884485112,-0.16993137625446897
804,8.352278328652377,4.389945897708467,-0.3574859605566553,-0.2659780814943711,-0.12435286450533742,-0.16737772051294164
805,8.375660752529468,4.397156505168191,-0.5865859477478331,-0.269074102007392,-0.12630749238577854,-0.16655280753877671
806,8.515276283171243,4.330548740439446,-0.7976147160872917,-0.2702484437986879,-0.12764555146015327,-0.16870734401604393
807,8.547876867041511,4.264225582910984,-0.7606621279108279,-0.2661739751014731,-0.1278271571448858,-0.17380888793061391
808,8.558465315088592,4.182901011845178,-0.19411348363989714,-0.26276091986426964,-0.12446026315052496,-0.17889783989770267
809,8.35760930102779,4.495317374138729,-0.3304529529271837,-0.2609442152183055,-0.12185156987559759,-0.17614886808312452
810,8.489489517690743,4.519751353636368,-0.4332137752156251,-0.25982816199651204,-0.12158950431846544,-0.17615644909422892
811,8.641670713317854,4.428367263989384,-0.6069595483045115,-0.2586475687019576,-0.12352960609878985,-0.17786713918172364
812,8.582212137881825,4.400079971603024,-0.8302203155387325,-0.2578550871027191,-0.12650939300661948,-0.17900114598673994
813,8.519162742692377,4.3883428157188025,-0.5044969730199698,-0.26122112001634024,-0.12732485716439218,-0.17731627897595892
814,8.487608458307225,4.463262553366999,-0.38841035004471614,-0.2607212435816858,-0.12660880176617464,-0.17481474624520327
815,8.62408025596406,4.433692868148121,-0.32917002758613567,-0.26045908986315053,-0.12690334966510713,-0.17340042790920351
816,8.67014724261029,4.371102486849049,-0.33846115902331075,-0.26260081915607325,-0.12845346718186113,-0.17292737770341013
817,8.488355226360964,4.37462334288943,-0.4984495980147528,-0.2670609489226264,-0.13096462864119207,-0.17355911093752435
818,8.332416264213046,4.55324030489633,-1.0542699977824583,-0.2687379187529435,-0.13350736849318023,-0.17699807040101578
819,8.438039569791814,4.4624316581205825,-0.8325258123792212,-0.27043677691299706,-0.1352565076264789,-0.1756968552278154
820,8.53456780196008,4.538512116442561,-0.6361546997779519,-0.26815147944808015,-0.13468397288268397,-0.17570161519655522
821,8.524019408525557,4.621410943703266,-0.4187211105168694,-0.2646531796394697,-0.13229157633510472,-0.17615988634511037
822,8.358843598675582,4.567434119452173,-0.18567176643691646,-0.2624155734802722,-0.12965649953788974,-0.17553191405620883
823,8.053703777682511,4.405020368727668,-0.28351002284562193,-0.2616093639869262,-0.13051244048098853,-0.1721145661848208
824,8.26065744524416,4.726885696582199,-0.40089957590388176,-0.2607825634420583,-0.1297907790980113,-0.16948094775698475
825,8.457502583681961,4.627996621403248,-0.5520851024960005,-0.2616583508642896,-0.1312390702261706,-0.16982421835480305
826,8.451436914212705,4.414495378607759,-0.5726405855529633,-0.262271018518374,-0.13305981909509745,-0.17044793415653015
827,8.253519960534929,4.342091879165909,-0.4520465428717403,-0.2609941935656184,-0.1334668037281911,-0.16974035816056454
828,8.271809098070795,4.280254141163986,-0.5788972379059085,-0.25763073372767886,-0.1317968546968986,-0.16971234582365624
829,8.492284681650034,4.364775019239527,-0.3125655044430736,-0.2604833649238224,-0.13165119051924012,-0.17290479177151646
830,8.463330944833931,4.560893336865851,-0.2530303123505937,-0.26098596766997606,-0.13280692689403287,-0.17458755366382267
831,8.23973478678451,4.707953872463423,-0.2926216583903018,-0.2626876714485491,-0.13449357547787266,-0.17472417652133243
832,8.024590642015893,4.6907520019507825,-0.3616032400286411,-0.2665199737190293,-0.13646581674303537,-0.17374744939148817
833,8.265718481633558,4.5068434851241275,-0.636194528527446,-0.26489145851727663,-0.1398879520975597,-0.1720456081625033
834,8.311275981618696,4.64686547575398,-0.32720953207272446,-0.26083477954184153,-0.13698786826444928,-0.17427972553513615
835,8.14871982712023,4.618886327392287,-0.19751274736928842,-0.25603789396645554,-0.13363074605009773,-0.17563134811894554
836,8.103527922867155,4.568223858539535,-0.1739028227835672,-0.2546246667614989,-0.13208388245687153,-0.17609946218315572
837,8.322123256387048,4.616613626706964,-0.18912188229555593,-0.25705902776728,-0.13338187266318702,-0.17643443351673316
838,8.506939804117913,4.719030841427167,-0.35964539976418186,-0.25540782217291186,-0.1368081866144273,-0.17814999447130442
839,8.315726474858874,4.79703509512099,-0.4565167283782162,-0.25686909937462316,-0.13701552038338796,-0.17747263818681325
840,8.203053117999712,4.6284682295605934,-0.4223078626178537,-0.2574109522777362,-0.1375919217770921,-0.17603926003198353
841,8.319591609339481,4.499317368566256,-0.29597867946166634,-0.2577730937512348,-0.13695407206492274,-0.17544697391289057
842,8.531958925623,4.57976911207962,-0.10251349373095144,-0.25890150955986013,-0.13534083042267744,-0.17614056865077618
843,8.140186347881107,4.716807315300814,0.19031879400216145,-0.26143686007947625,-0.1378708900240332,-0.17616783808309236
844,8.093006177422275,5.001074069898014,-0.195391007690247,-0.2632296573491701,-0.14200017136518026,-0.17219622866820938
845,8.251004766070428,5.004608175988412,-0.6521695516972192,-0.26551885132927733,-0.14447589017810533,-0.16971313286115136
846,8.328539828804864,4.864350303155953,-0.8739210296809659,-0.26472835354656665,-0.14469399053642307,-0.1698734772159356
847,8.213617429156516,4.769675075513062,-0.7383773099363854,-0.26015148790513853,-0.14287775998537056,-0.17191576829142588
848,8.169338464595999,4.935715559665358,-0.42529337016066243,-0.25761613738552186,-0.1403477003840144,-0.1718884988591097
849,8.220490128714763,4.818537012920674,-0.34770580336290663,-0.25586957021087275,-0.13861163438096868,-0.17267224177071983
850,8.344549223037022,4.847988265237393,-0.13526657702267206,-0.25535020869471836,-0.1386777578214689,-0.17293391177156922
851,8.392437185872568,4.929366550841801,-0.09457853541468332,-0.2546317385767724,-0.1399113956562631,-0.1718054524579734
852,8.279793157938864,4.963251473311875,-0.3472798759188351,-0.25411210865928857,-0.1412911034193253,-0.16908265352779114
853,8.057435748950175,4.914377770789198,-0.5596085091098228,-0.2583171982339214,-0.1412443726828297,-0.16569062785406521
854,8.097212055948885,4.974469580661013,-0.4853747200275411,-0.2562151350626132,-0.14126181293424334,-0.162261543054394
855,8.117023467633935,4.921740609417389,-0.3973142737010027,-0.2560350247812801,-0.14126174994954427,-0.16061957401698185
856,8.087782500823504,4.733509321396966,-0.3598591629907206,-0.2561401173619666,-0.14277296406334042,-0.16128912267773376
857,8.003758365622716,4.5574987345298545,-0.3706119712591588,-0.2562897291359213,-0.14551992057118202,-0.16370002318592866
858,7.864664661731488,4.861780458247554,-0.32659853073512496,-0.26046275697093046,-0.1454794357946597,-0.1654325086615003
859,8.129397143870056,4.799155815814936,-0.38120669309419064,-0.2607086376498717,-0.14708650567658543,-0.16553590530716839
860,8.35375519865626,4.765544859013804,-0.3898775094292439,-0.2565998314052033,-0.1458734470397694,-0.16907052689468577
861,8.287289574736317,4.8935220101265,-0.40017195057112687,-0.25218297240740317,-0.14336792732345321,-0.173395324069251
862,7.982359765305211,5.099768899475236,-0.3639819713889635,-0.25030281495218054,-0.14150426863049184,-0.17494268388005818
863,8.035783298633664,4.918637773403866,-0.015204477187873294,-0.25118599334111213,-0.1423400608613942,-0.16897251169688426
864,8.060022838539178,4.810389780657079,-0.4107677666883219,-0.2504609342295744,-0.1440047522145766,-0.1678529391740236
865,8.194527216199273,4.81710626500931,-0.47545026959511355,-0.25080893732356896,-0.1463007739566195,-0.16880060315507683
866,8.254745535595594,4.900984186311287,-0.40795944301311066,-0.2516511263451884,-0.14770268602635564,-0.17013748463745268
867,8.189883910696551,4.958887129558916,-0.35746641467121665,-0.2524837864054826,-0.14735479530433382,-0.17031412704604845
868,8.227906065047423,4.768490702036618,-0.23325545907056375,-0.2533199503314373,-0.14563995732301113,-0.16774804373658359
869,8.170822179597637,4.993048066962061,-0.2007563680957371,-0.2557624237249905,-0.14714807800727422,-0.16764174367637832
870,8.198775105721182,5.138836610028194,-0.18503575749713766,-0.2559441346809612,-0.15004573387782655,-0.1694524789430527
871,8.165492157280068,5.214317456080802,-0.4300713258173421,-0.2566320943462673,-0.15267958900832204,-0.17126085473779473
872,8.028882107212945,5.213600463477915,-0.8385735447577183,-0.2577966672617015,-0.15351195025948475,-0.1716081957060135
873,7.962944953465219,5.043091787580289,-0.6648624836985653,-0.2535993074957262,-0.15099682660270208,-0.16986239300319497
874,8.12854083333908,4.988746398308097,-0.4101779349495276,-0.25097198886782535,-0.14765723193683056,-0.1705639359213551
875,8.126945507791493,5.055807002073688,-0.36005056874409014,-0.24962136674204616,-0.14606112503767954,-0.1708018652005189
876,8.046006422047949,5.118823642914618,-0.4002511779669965,-0.24878542920784813,-0.14637811175583612,-0.1711860605508325
877,7.980418408052629,5.166598732064446,-0.4630548495945687,-0.24778725406722496,-0.14791842363607965,-0.1720415809019036
878,7.992932028471906,5.402327209556777,-0.602955265376405,-0.24611640478519267,-0.1487880949831085,-0.17288986923049568
879,8.209562187333026,5.335836706528367,-0.38830047349770536,-0.2476611681798735,-0.14880682418604851,-0.16967380697758913
880,8.07364032844802,5.472825391603807,-0.31967558631341286,-0.24583280055100223,-0.15002293344049472,-0.16504662758855349
881,7.956394745670167,5.470347287173063,-0.35008149356223517,-0.24556824405988392,-0.1501694222216843,-0.1610905438847819
882,8.035221055308131,5.220005366711287,-0.4110343102461204,-0.2482272823355839,-0.1491413578526718,-0.15871545659579792
883,8.091532347194894,5.070045899254625,-0.44654913740608027,-0.24825498577047747,-0.15084327206706824,-0.15701510117599718
884,8.007711004985302,5.025396044514116,-0.46224902654197336,-0.25068088212021644,-0.1525217319887052,-0.15614751441392938
885,7.852246890937821,5.271352081839968,-0.6088135294003407,-0.25439901789463665,-0.15539585579917203,-0.1571449295366226
886,7.854097770442332,5.413604902313151,-0.6872038924953043,-0.2532215923974015,-0.1584264707197443,-0.15925303060561907
887,8.001632430373839,5.302544562655374,-0.5613483220207875,-0.24690745728433028,-0.15908409226279197,-0.1619599779149182
888,7.879865277832409,5.2201438841391505,-0.20933778627854063,-0.24514560764149493,-0.15229088431719065,-0.16533336892743597
889,7.868102508522889,5.123796872969906,-0.024985449980561607,-0.2466739761371521,-0.14954785757150124,-0.16300434607646064
890,7.976201205250945,5.097946815555037,-0.0584092021189245,-0.24538272306819242,-0.15003308113583197,-0.16225859624319566
891,8.055193018576578,5.086990906781676,-0.2527428135449114,-0.24365823452893318,-0.15214932214700394,-0.1634412768596668
892,8.00163664525018,5.067946765939167,-0.4948594165532599,-0.2435424953648268,-0.15434652342181068,-0.16510679304015702
893,7.785054753378127,5.0794682911589595,-0.5888471005815356,-0.24607204227452606,-0.155170499181806,-0.16341781292547713
894,7.961936791714894,5.4842823545366794,-0.3717815311914885,-0.24294325884146098,-0.15523384465220225,-0.16333624071308367
895,7.899147033238048,5.552357949112244,-0.14209780407063408,-0.24493992711434132,-0.15339188970882894,-0.16516781718057505
896,7.876604034773541,5.5208854352144385,-0.1608345628306787,-0.2460045805637866,-0.1535959312746233,-0.16734105775840633
897,7.962333362790422,5.542532811746164,-0.46143472139282193,-0.2445982639527426,-0.15665272783349296,-0.16813793104023605
898,7.842491382621193,5.582376233087822,-0.7431540243883737,-0.2471408836519496,-0.15832806801478577,-0.1655983696435317
899,7.970791004672559,5.606423651087407,-1.0717776617013908,-0.24644743756069543,-0.15838906559187127,-0.16138280165249627
900,7.914943471118267,5.509430460352745,-0.47301602104446316,-0.24382267317878822,-0.1565804964321801,-0.15708780233085384
901,7.864138884683291,5.359516985794817,0.02348644702681583,-0.24009934073176914,-0.1544541322921159,-0.15158851914512775
902,7.91486430388079,5.249242084623542,-0.09141007708373429,-0.23738946093206015,-0.15295737446055357,-0.14640322607128367
903,7.995721543513041,5.302876896551609,-0.4723147633029368,-0.23988505044707742,-0.15208048518089526,-0.1472677457134875
904,7.825445031846736,5.1243539918310095,-0.2866702817789163,-0.2375491418761923,-0.15455321913178285,-0.1489465642020681
905,7.81949549385455,5.226381496940513,-0.23730786175993418,-0.23863902534214743,-0.1552637384163884,-0.15127876018847458
906,7.870483751128342,5.338332988068069,-0.37360746571484715,-0.239955573109694,-0.1556535126431366,-0.15425200601786837
907,7.862984530489303,5.3160505424035405,-0.5924982561933224,-0.23956909902219312,-0.1561385470279321,-0.15785683299541872
908,7.6906816031777145,5.230201737887877,-0.6031241297838885,-0.23786038711162827,-0.15530918109649225,-0.1621141886754337
909,7.83278139778028,5.287831693511073,-0.13321274458448729,-0.2386221605661103,-0.15527657643385784,-0.1622439227747154
910,7.799703378100906,5.294154936502562,-0.11141871841414143,-0.23887527666591718,-0.15650178172086254,-0.16101883968723568
911,7.724563810936025,5.425639552645102,-0.38365636849320967,-0.24087374591011623,-0.1585866057490014,-0.160541463554014
912,7.701064317081366,5.647530703185734,-0.7446430674591099,-0.24339978235896595,-0.16111734465647212,-0.16161291704754274
913,7.743418109269689,5.612010730114147,-0.9651413009667545,-0.24006645806191027,-0.16370908789984548,-0.16331447148487832
914,7.6785067706966785,5.72523856743212,-0.7883641890230282,-0.2374998523154143,-0.16131818303174977,-0.1649956682968325
915,7.844416537406218,5.70066494034871,-0.29681869280585166,-0.23434989941673134,-0.156943251490787,-0.16357293758643082
916,7.875689008881563,5.675175323745618,-0.09298407153724603,-0.233373745726207,-0.1538599083245645,-0.16058468813196897
917,7.741574688478138,5.645075173137597,-0.2931323859140416,-0.2343213014964613,-0.1543369441770438,-0.1569834358392777
918,7.891256840416411,5.396322164816104,-0.34534967345753914,-0.23272595554034087,-0.1594591519594981,-0.15272728448932435
919,7.838051331418249,5.648313569448504,-0.4983279757245642,-0.235977280424513,-0.16037780838093918,-0.15014691280006795
920,7.8182746357262385,5.458830838449701,-0.460352815773727,-0.2338741645452636,-0.1612492291713484,-0.14819688687090787
921,7.746390276427945,5.298203764538016,-0.44328074928032846,-0.2328792951157112,-0.15967072442504998,-0.14647501215263986
922,7.655119393112428,5.35890523709088,-0.45836197132440326,-0.2346035498705164,-0.1567505716039825,-0.14573510988940802
923,7.74560249460566,5.42764516528554,-0.23403833669527216,-0.23376739380516803,-0.1584662092096684,-0.14830119711627346
924,7.576626284951309,5.578141893002584,-0.424915288743371,-0.23374711465596737,-0.16100874869595716,-0.15254715338903738
925,7.596301608065086,5.553779306596583,-0.47709995376036296,-0.23680836283828977,-0.16291331126285052,-0.1537317596617756
926,7.6813027337919415,5.517943233776541,-0.5709700905894985,-0.23778437956423926,-0.16379064248216996,-0.15456142949581173
927,7.738283906487554,5.592362459256621,-0.6826360166850116,-0.23506921180944904,-0.16342747602500704,-0.1558587907322393
928,7.726732872254371,5.83878687207173,-0.5034125689682322,-0.2317057598321151,-0.1617583266180769,-0.15583078231273106
929,7.7647553536990515,5.771846229002408,-0.2764916082916475,-0.22913645570726107,-0.15841131298401678,-0.15747557847302623
930,7.748457942341591,5.836671183162382,-0.22953024175550035,-0.22907498989855224,-0.1574957298146073,-0.15605450078858457
931,7.739035661359025,5.866362331949839,-0.2872374638735383,-0.22793199728912883,-0.15914672535904348,-0.1526689395537022
932,7.71763186470285,5.810245267653592,-0.43209517011171134,-0.22677986525536223,-0.16156892709298837,-0.1484025307801754
933,7.560730316368832,5.774571643815961,-0.7285392989777113,-0.23265579625142097,-0.16065172538510103,-0.14416221286045716
934,7.640513467771286,5.679683993426201,-0.6563729581378404,-0.22784482362819308,-0.16319936470632954,-0.14323581184607995
935,7.691042974147847,5.670667268404644,-0.6616960032640549,-0.2271103283796422,-0.16326357658662854,-0.14551325454306674
936,7.61450822778095,5.714734401813306,-0.4700853442255982,-0.227920819937192,-0.16199285039691527,-0.1476861398015856
937,7.481578961906488,5.7425060314608185,-0.15565175670487852,-0.22834285013993966,-0.16028532907326348,-0.14833326646731965
938,7.562436201538721,5.642728796287452,-0.22637064563367398,-0.22748884075557546,-0.15859064779533327,-0.14832000285467611
939,7.716383393214429,5.555014417669572,-0.35882604604245055,-0.2307778532227672,-0.16189959523339875,-0.15340981094095524
940,7.571725325618238,5.719129127680967,-0.5887253045033582,-0.2304511210254251,-0.16531201826648645,-0.15477362896501262
941,7.500404034787481,5.763221746553352,-0.5806171117409973,-0.2283803353131856,-0.16583308633144261,-0.15393102749819826
942,7.597835685231301,5.685863718117036,-0.3599604888025253,-0.2254563127322736,-0.16289905412224567,-0.15178416617125098
943,7.628157150093394,5.926476151400169,-0.37632774323105284,-0.22125315721698816,-0.1586786462484651,-0.148322117838836
944,7.539515925721551,6.186257459602837,-0.1543216240495462,-0.2245195848653334,-0.15690840391553712,-0.1449161874257296
945,7.579394860796418,6.043435889507804,-0.37056285187518645,-0.22296418812347207,-0.16025680199056364,-0.14276981380314938
946,7.606816367564272,5.819400053489445,-0.500298073577959,-0.22252487881384483,-0.16328415974196314,-0.14149194973578183
947,7.542685488009181,5.638476528016351,-0.43561220346114116,-0.22404177691768748,-0.16411942428240808,-0.1406503936024191
948,7.38097100874468,5.393866595326534,-0.552234717518328,-0.22238266040638646,-0.16498700331403665,-0.13979078497843678
949,7.580414746280168,5.485060795957573,-0.4574726647388829,-0.22150579634262213,-0.1616255587681754,-0.13976186230145354
950,7.560936415895323,5.734412549340939,-0.4481401598195799,-0.22190210671551408,-0.1620086346601616,-0.1416673961408817
951,7.493592592527461,5.891204455178881,-0.4198844918703328,-0.22272669670925122,-0.1632889339457375,-0.14550311968469892
952,7.499022945711823,5.9749900534682325,-0.37374896933598056,-0.22395046331150087,-0.1643409352243354,-0.15022475307371072
953,7.636672770323904,6.301401187756442,-0.4299848550090302,-0.2264555424601415,-0.16602356450626016,-0.15366445544179497
954,7.509804935673554,6.139709990888063,-0.4958197963905516,-0.22234070491471658,-0.16607103580626292,-0.1494169061390981
955,7.580883368855696,6.052381719943394,-0.35612659587915374,-0.22190329136866163,-0.1641677384433652,-0.1451344082705302
956,7.657307300421413,6.053295382925063,-0.30086825653813765,-0.219017838606703,-0.1620580082312254,-0.14083640651287802
957,7.593868819012439,6.081255809749854,-0.3689379634842822,-0.21439205777971987,-0.16060573616378726,-0.13674097068534366
958,7.29883615297332,5.999208544243605,-0.330498959224434,-0.21607855292693995,-0.15973294436453575,-0.13332922172703862
959,7.539006724067167,5.699197270234316,-0.47197183386698727,-0.21446445325316593,-0.16228909531380106,-0.12991531464101685
960,7.432683810696465,5.684841267879857,-0.5510364808604957,-0.2159162494614752,-0.1629219897017266,-0.1309773348033209
961,7.310687621545221,5.765601811719495,-0.5746833775631148,-0.21800855985386708,-0.16417525753792273,-0.13313349751869488
962,7.3223982289261755,5.825639267814108,-0.5140751072322098,-0.21801631786432873,-0.1656762171164204,-0.13591023260514956
963,7.426357537024761,5.828641567661677,-0.30253244131140106,-0.21294157031913574,-0.1640305864242897,-0.1418516495468216
964,7.6034004928462755,6.039938077761748,-0.3326287938736736,-0.21539647960315134,-0.16145455281247906,-0.14527299313426617
965,7.609857776891051,6.298408061486327,-0.1481791785658153,-0.21411944321777082,-0.16083088877858248,-0.14803833814542475
966,7.561489087503222,6.467306012284537,-0.14790083000685775,-0.21581056275694713,-0.16209186187257957,-0.14762532410077048
967,7.483038249550653,6.44684148421949,-0.4032906583803674,-0.2198299002610062,-0.1646018857046416,-0.1433871950997054
