# sampling frequency: 40
# units are seconds/meters/radians/a.u.
seg1_acc_x,seg1_acc_y,seg1_acc_z,seg1_gyr_x,seg1_gyr_y,seg1_gyr_z,seg1_mag_x,seg1_mag_y,seg1_mag_z,seg2_acc_x,seg2_acc_y,seg2_acc_z,seg2_gyr_x,seg2_gyr_y,seg2_gyr_z,seg2_mag_x,seg2_mag_y,seg2_mag_z,seg3_acc_x,seg3_acc_y,seg3_acc_z,seg3_gyr_x,seg3_gyr_y,seg3_gyr_z,seg3_mag_x,seg3_mag_y,seg3_mag_z,seg4_acc_x,seg4_acc_y,seg4_acc_z,seg4_gyr_x,seg4_gyr_y,seg4_gyr_z,seg4_mag_x,seg4_mag_y,seg4_mag_z,seg5_acc_x,seg5_acc_y,seg5_acc_z,seg5_gyr_x,seg5_gyr_y,seg5_gyr_z,seg5_mag_x,seg5_mag_y,seg5_mag_z
0.8010017562598157,0.15168069641056872,9.74431795908031,-0.001372005039561487,0.001309728647458382,0.011712472456379342,-0.37040039581411555,0.09286075806271542,-0.560502010247746,-0.03060153709527816,2.3355365931226104,9.523518610030518,-0.011231542056812222,-0.0033325326656950417,-0.01124125251287123,-0.88113424180459,0.17634681282063203,-0.25076289003051355,-0.3002605989665369,1.8139962224559745,9.565270676632665,-0.00658647917557023,0.002472254201712518,0.0033475373383869073,0.06051307357366781,0.4806379538187954,1.1461419447409424,0.1578201226998542,1.767539188209579,9.741196549241804,-0.003840591468186735,0.006027388700680928,0.005854917815426203,0.5383460103059126,0.12178918196075798,-0.45826874290751696,-0.5711333924891239,1.7586273676481834,9.630038480402698,-0.008723642562274455,0.005997588799037278,-0.00551182647072059,0.32963278279114105,-0.06387928482866281,-0.6617820574419853
0.7933802686803435,0.16008844977076508,9.717488897327987,-0.004473243742480674,0.004961294291179076,0.008899036148745066,-0.36013641250280787,0.08821716767882033,-0.5628928084265549,-0.013478250037080898,2.3090683647568797,9.551386448025278,-0.007319831878807434,-0.0036670601936863194,-0.010559857754812593,-0.8723008444950886,0.17514697414142213,-0.2553213859575014,-0.29494630393508225,1.7911928164109643,9.54657978039773,-0.00334500579942366,0.0022941808512356525,0.003934032209279143,0.05608953789727146,0.4762473435252968,1.1485399204226943,0.15088255998171307,1.7541143120066758,9.758154190335675,-0.0026909354154255774,0.003870453131325453,0.005875385106375697,0.5363904961068868,0.11765211323407541,-0.45976561683945455,-0.5751039605146007,1.7829800685439687,9.675795399580407,-0.006386874219913824,0.0028992616879420447,-0.006621074336075048,0.32566791796940114,-0.0682921532631531,-0.6592141991660657
0.8225162592620329,0.18005968908522718,9.703203762744506,-0.004926902576647293,-0.0021847687801454007,0.01109780813393024,-0.36411057542299574,0.07647881152105672,-0.5603981307324835,-0.009173136436659984,2.3474602388207946,9.532943746765755,-0.009215235892534493,-0.005491612705328143,-0.012065589721999604,-0.8771049942866095,0.15978447015858083,-0.24982774352667161,-0.2864520019288259,1.8303525183756577,9.543725367592462,-0.006577027186379273,0.003957016071602318,0.0041109270485754044,0.059572944520382656,0.4855333569014289,1.1427313541730624,0.18831677741988162,1.778177045425664,9.71130939523314,-0.006138205074474964,0.003070761806799208,0.006592615671309307,0.533025296385364,0.1279279635506924,-0.462189030775361,-0.5448441500298038,1.7940980607496186,9.594918524098356,-0.0087442899888002,0.001662476198457221,-0.004440853350577099,0.32529493340116855,-0.060907842643949765,-0.6645123444255864
0.7946610963208703,0.1598737408091143,9.749823428817047,-0.0010922993414743355,-2.570509757678686e-05,0.010091317178474439,-0.37093242614551636,0.08600228736936341,-0.5586414800881139,-0.04569860324646275,2.30776416350702,9.53758268813304,-0.012488994218896037,-0.004390815509918139,-0.010223828077498354,-0.882572221125021,0.17026060124916825,-0.24802470191035195,-0.31149675978432045,1.7824529239272402,9.54435800148088,-0.0054162597104494324,0.0010045724087109935,0.0015125336441278938,0.06248773929549474,0.4769836289976982,1.1417512392863538,0.12796209539764097,1.7485445744759653,9.759466032204688,-0.0005076354910833294,0.005764435413170766,0.0044491962842265545,0.5388524238685359,0.11668066076951107,-0.4629251227827174,-0.5813389863928716,1.7416195575022906,9.626506774283403,-0.006585283241095553,0.007901834287742158,-0.006954377867473725,0.3282384214465357,-0.06797444089185381,-0.6664919194631892
0.8098781332600844,0.1815331288197644,9.736004008178153,-0.005817557369053508,0.004367848016721747,0.007792890411175504,-0.3682702247809368,0.08937030901210785,-0.5553956613765348,-0.016013807530958796,2.3358909862680273,9.543414014114296,-0.006354183745766189,-0.00347294197482285,-0.010310468901294176,-0.8755476132881648,0.17691169653572092,-0.24755179470214148,-0.2949172207594922,1.81974890346134,9.57130141817803,-0.004119789217100979,0.0032936842631830906,0.003420416024567561,0.0646982195296879,0.47551999952138174,1.1393206089380081,0.15966411188224716,1.7897522388919835,9.751358998025252,-0.003258937090931822,0.0027303796170414837,0.006552145387901068,0.5410445636352692,0.11691413269240193,-0.46217533407626216,-0.5747760648582982,1.815085183844876,9.726440856562787,-0.005539274426744658,0.0020563454407956728,-0.005312150812367011,0.3313629178488371,-0.06703923622925884,-0.6634958187520872
0.8008594279529414,0.1731715242810864,9.707336931659581,-0.0005624170198449744,-0.000794031282554231,0.012093549082800878,-0.36921942158594667,0.08721618669057504,-0.5586076449458007,-0.013548270155456218,2.3378757265938774,9.507689366862168,-0.011189902445332986,-0.0029804743158807776,-0.01050051432627497,-0.8782098735755269,0.1754105814757876,-0.249021726244485,-0.2759584146607986,1.824066094104064,9.550691801265856,-0.008638829108214091,0.004152169498967461,0.0024528181936126514,0.057108864322244116,0.47992021086625297,1.143918652941246,0.16140014870308422,1.772113334350382,9.734303401854813,-0.006628396696207653,0.0017556289247933781,0.005382141517661193,0.5351813740200786,0.12009928084623529,-0.4602533026575669,-0.554357275889541,1.7670412685180295,9.551238313435936,-0.010834350264280016,0.0025771755226629577,-0.004700674810735421,0.3267022310481074,-0.06460359885934942,-0.6618417706428096
0.7790237985797394,0.1537739582660223,9.741882697283858,-0.004118920628840238,0.0032965649096178564,0.010658974277574297,-0.3688025354251485,0.08786069368658539,-0.5517580357846128,-0.03924841893213257,2.313889425004229,9.522642372075408,-0.009299260990032344,-0.002945257263055367,-0.010739457094922546,-0.881876787969417,0.17200704043817613,-0.24486319089737346,-0.30954504368685304,1.7809355680411558,9.55372772636424,-0.0005610493083527915,0.0025730632129348304,0.0039125872994526705,0.06074572437957673,0.4735601996858574,1.1451470668408017,0.14620750697786591,1.73349640650002,9.763241587109059,0.0012475255301055276,0.005978287052378109,0.006365606017584121,0.5363674701433314,0.11520171223980914,-0.45782330435885277,-0.586725662149586,1.7420372823336925,9.680401039323918,-0.003148515335581385,0.007034433547441435,-0.007055354693297804,0.3281137927444406,-0.06951486978435716,-0.6596736596035363
0.8071033464232048,0.16907739035155644,9.719105807498154,-0.004746289404745204,0.00219832989763667,0.010050208084789097,-0.3677623562730858,0.09109293454000932,-0.556589509720905,-0.009005432318305973,2.349704188141117,9.53462195884309,-0.008371336863507833,-0.0031020626405889153,-0.011220787427428493,-0.8767585890848479,0.17954749151461244,-0.2514946305406082,-0.28246669538142655,1.8411990004970618,9.537658873521474,-0.007221022560266303,0.003553349631556962,0.003536172871910969,0.06101979493676538,0.4791808886110434,1.1429672259438615,0.17192586226859166,1.805234995314484,9.736354007354658,-0.006512084389979345,0.00281327555025456,0.006068626086366439,0.5393264383749974,0.12032620408564068,-0.459487618429573,-0.5879083623873572,1.8449520771315198,9.672849550075517,-0.008743210204867336,0.0016595286858555997,-0.0044458679528665765,0.3291155216522992,-0.0682833522711905,-0.6608626397589317
0.814147108641216,0.16608874178176447,9.73078930126254,-0.0014609308115056028,-0.0011886244343452864,0.011353773298691097,-0.36919601718818573,0.09648409732064674,-0.5577577080145112,-0.017203774042142517,2.3119080737723445,9.53325812395505,-0.010690078315599923,-0.003604622213321648,-0.01088327305113533,-0.8804655910592417,0.18296168869010895,-0.24911705971965012,-0.2964154552819102,1.799376270104588,9.564557588077324,-0.008541886944423085,0.0034537004186296263,0.0038985253426202016,0.0651236997830571,0.4774441375217408,1.148851479648996,0.1678043330868147,1.7418872070135083,9.723126323408534,-0.006614460158103034,0.004586033382172676,0.005978499112190738,0.5434464915598838,0.11663980332909672,-0.4570309668026914,-0.5588651891207148,1.7173287618899977,9.558597155740136,-0.009195045856842601,0.0035912393245567395,-0.0044765037478280935,0.33393410124592493,-0.06955642440483868,-0.657373944151341
0.8065047455845251,0.1597879281906921,9.734407642871657,-0.004837841106629596,0.0038053730019200305,0.010160624328419146,-0.36949311882433084,0.08693900335115738,-0.5559287354254827,-0.02254897031532123,2.3282605407788486,9.51188140686373,-0.00823597181881916,-0.0035009648271925077,-0.010059531921435386,-0.8799113171254341,0.17538706545413477,-0.2500105608328791,-0.30496439078114834,1.8002996716581283,9.534934751052473,1.988008951199383e-05,0.0029685124581068636,0.0015297835036714635,0.06000933622887175,0.4718531161780113,1.1451368988153645,0.12974788732649625,1.7560454743582943,9.743654475003003,0.0030814856110556637,0.006016071667608352,0.006395784558524231,0.5395459062339999,0.11543718535978585,-0.45828701701482044,-0.5952655841865022,1.788886549467637,9.684303826227618,-0.004009984443019041,0.008792771395840204,-0.0062309470345397406,0.32787992479663475,-0.07365040020456932,-0.6609437501225501
0.8050539354298271,0.16138214289827352,9.710733980325251,-0.002005819155744083,0.004329067724477368,0.011559933267598842,-0.3708624462833251,0.09046094501889132,-0.5637118686120036,-0.003353884653529274,2.348640016182809,9.513469384412636,-0.008304566467420553,-0.00419464395351292,-0.011510001515701534,-0.8825731138877813,0.17678286899575307,-0.2546847144962886,-0.2928325216233652,1.8419025509604632,9.540814473792006,-0.0075372942811015135,0.004093894746006819,0.003630497724650462,0.05852595850830695,0.4667278446478822,1.1458435531018298,0.16700603368107733,1.7897644245409108,9.73213441298916,-0.008384941000862246,0.002857535822050809,0.006978540996351289,0.534377919275007,0.10641517138382077,-0.4569004321421311,-0.5587667883969681,1.8013528884127998,9.655557203952675,-0.010279314720386543,0.0007665162190689077,-0.003978731300948687,0.3252070774047453,-0.07875296110556626,-0.6625126153402434
0.8049934565648371,0.16784923256877382,9.69553826502453,-0.0032674907509933396,-0.0013439901475355213,0.01162440160505049,-0.3661024342288666,0.08665205663188164,-0.5534535498658975,-0.027718380203463504,2.3110711019297487,9.529494155782096,-0.010552728529611408,-0.004004477581335894,-0.009718992277026649,-0.8770072985919892,0.1732713340240488,-0.24435102985645046,-0.2978360068600167,1.78709736581349,9.545164379249902,-0.006357648620929267,0.004111963230285299,0.0025628865377885675,0.060326232879649805,0.48066192348955394,1.1380834522634413,0.15746834963069686,1.733714660498374,9.722371004632903,-0.00456280432663715,0.003908714462148081,0.0067842816075260135,0.5366754378356486,0.12157306238759358,-0.4634096402952977,-0.5598972137322465,1.7296348020000454,9.59523384545156,-0.009220293766059937,0.00477994761065483,-0.007500471365651058,0.3289710347306265,-0.06651439412955455,-0.6662188055165055
0.8003003062439134,0.17263455882705958,9.748508800368878,-0.005913956373023652,0.002511345872886033,0.009181494754380204,-0.36135059290956156,0.08944544031668072,-0.5631343250242018,-0.018032119268802542,2.3305150502872105,9.533147348683931,-0.009193774011862383,-0.003688875930344323,-0.01029492388458167,-0.8725465937379882,0.17442321365876776,-0.25433969655990046,-0.30038122885949065,1.8098459478528919,9.573009027823192,-0.0025269206450425803,0.0020707443603418993,0.00370218136343559,0.059490443171557626,0.47769496087134455,1.1514973242393471,0.14858542470879382,1.789576505020052,9.75630377194516,0.0005007176977689219,0.005462285281665199,0.005323629897808893,0.5392896925765845,0.12103704308646954,-0.45435763054837874,-0.5745448742535404,1.789510286762741,9.674504129055727,-0.0035454732902889573,0.006266239791020753,-0.004691332329869179,0.32904177159150005,-0.06540478483270978,-0.6561931264619539
0.8112766732779715,0.1561527482934897,9.722521229526857,-0.0006071422654084205,0.0017518750722540991,0.011501281841637019,-0.3740751358881957,0.09212828650616857,-0.5595747132042916,-0.007571080821341544,2.336484030189442,9.537871910306718,-0.008463131842886655,-0.0023460454492298752,-0.011637341971432555,-0.8862723017610603,0.17752997792383995,-0.2505693565133474,-0.28852244581914216,1.8038525929833953,9.547179031632517,-0.008029637670936552,0.005257559607676552,0.004527401886866752,0.06174490260963678,0.4801517320447781,1.1444402245487206,0.15881974996316806,1.774094859694478,9.749505830300746,-0.0079711405547546,0.003022008567245337,0.006554397262589621,0.5395639718053421,0.12032116652107099,-0.4585097874153318,-0.5691847553339151,1.78441395609469,9.651999506688549,-0.009165386294619979,0.002078065442455001,-0.005107834970637419,0.32911336535873653,-0.0643856948436217,-0.6600874482163337
0.7911875029850858,0.1708302442301632,9.704639790183997,-0.004207832914867592,0.0008022114813477167,0.010300326009391684,-0.36239589094914804,0.08207184124188194,-0.5590875496792433,-0.027520722006857484,2.325720113322891,9.536150711230741,-0.00928946113498735,-0.002937982812797738,-0.010720455905103319,-0.8703511877000147,0.1715435417310564,-0.251118878819453,-0.3048484224393483,1.7962327715694715,9.544737082612496,-0.004367362112921613,0.0024248281301092545,0.0005000577107171929,0.06468168144910184,0.4711229098577755,1.140040777655808,0.15416264867745916,1.7436739952387201,9.749243806677674,-0.0033613164774543634,0.004495150529355459,0.006458983763474649,0.5400590449617105,0.11179469641817333,-0.46318102099483044,-0.5542230427337279,1.7390263677382676,9.609057697536425,-0.007246193138661692,0.004654693266914773,-0.00580566280351783,0.33264214203993775,-0.07236763644184242,-0.6676830276844719
0.7978096154290774,0.16036836932438958,9.731572055689057,-0.002991340262792375,0.0014310387955286813,0.010467415316012307,-0.37118767233445005,0.09352712895454082,-0.5551302847786758,0.0002987902064930381,2.339001848791268,9.529644302301133,-0.008660148709000915,-0.003966193362615098,-0.009952951549582553,-0.8843680311192293,0.17857678236546054,-0.2451941932801364,-0.3031387947361569,1.8188600846254634,9.549007869774439,-0.00262284413668443,0.0027682195365585673,0.002253478473843399,0.059985565358956015,0.47672123006944783,1.150277980421967,0.15775619139183605,1.7920337039626548,9.736608706959185,-0.0009184486074712568,0.005586970090594772,0.0048693065586624925,0.5375868405684328,0.1200710594803789,-0.45559586385074846,-0.5944510816174317,1.7981144872842738,9.664248800842012,-0.004774044063334785,0.005423612249526913,-0.005776550133783963,0.32878247650057785,-0.06785129704430311,-0.6557366310574336
0.7992483226773495,0.17625302435022733,9.73344829932033,-0.002093769882374017,0.0018296858505102438,0.011203231826937532,-0.3687086671927787,0.08310819312142459,-0.5620727404402536,-0.02974701401845134,2.3199683951332997,9.523756167764093,-0.010610691372998273,-0.0029046400141344805,-0.009411784473481576,-0.8781382797212355,0.1699996373490519,-0.25287153597710454,-0.29506298117938506,1.806827902701236,9.559045601915642,-0.008683065687261758,0.003371137075107757,0.0031872638879658797,0.05851698811812542,0.4813566415465603,1.152478052994763,0.14943599419613118,1.762140706362599,9.757814799600398,-0.006925849241404213,0.002638841836991645,0.006483726709592505,0.5351171095877398,0.12542379218687263,-0.449488375622693,-0.5537375814375761,1.768439738663788,9.672509970215406,-0.010701461035966916,0.001183075202590301,-0.004642720082096034,0.3248667184807348,-0.06224133023582469,-0.6542784138109968
0.8031611128635966,0.16172362768456267,9.695793878723405,-0.00506607094524577,0.001981266189270479,0.010610091209079695,-0.3728094027960854,0.09144780657632563,-0.5639643336667709,-0.015331967125318605,2.3134320698660646,9.543094472707127,-0.007765049276218718,-0.004465832031246921,-0.011160046908798554,-0.8840220427461295,0.17626826088914951,-0.2561555811320049,-0.2995457270521308,1.803109140340623,9.550570784280692,-0.004578270606173614,0.0037506570571244763,0.0028074693046387968,0.06858962176498332,0.4779423375470526,1.1422853153539163,0.14549728901169962,1.7519017313427285,9.744212942888439,-0.0020584528254472476,0.003308832115573145,0.0062238052665841,0.5408108575465209,0.12057584143677912,-0.46191729040663704,-0.5594288217524688,1.7494093266736048,9.615279922022502,-0.005988974777116267,0.003986138696609775,-0.0053507718518411235,0.3305720813866506,-0.06658687169890917,-0.6600860334184103
0.8041580765352121,0.16270891394376857,9.728133579068722,-0.0018150957547864864,0.0004912305023511915,0.009584027389073754,-0.36729296455748167,0.08790821186346107,-0.555892762355785,-0.018238465522754495,2.3524556483352526,9.540295447068658,-0.01024528636159929,-0.003125847181685501,-0.010952833001811742,-0.8779807798914093,0.1751912507315863,-0.24681952595646722,-0.28112885358206285,1.8167507353656176,9.549882913826645,-0.003452350915512646,0.0015049138549510545,0.0017169197550658416,0.05513277619527679,0.47162464577762103,1.144124615497864,0.14882265219180502,1.7803252756668182,9.744868176264339,-0.0025726347390108467,0.004913114880500977,0.0065568199358099245,0.5314810102966864,0.11131740825987317,-0.45909847444891183,-0.5758412437510414,1.7956050748516197,9.645777371611183,-0.007042978666189523,0.004899683059539603,-0.004412069290441833,0.3242579555224351,-0.07337133270921303,-0.6632030517646045
0.7888043472861002,0.1611032380960123,9.696323605927944,-0.004886445351922992,0.002884705489679067,0.01084851745910406,-0.3711635532099246,0.09136748758591676,-0.5580878304548673,-0.01952259181363966,2.3138208820629678,9.523420816265142,-0.009679829077172136,-0.003057380798724937,-0.009889134071713303,-0.8830945883791261,0.17634157902083475,-0.24980073000481923,-0.3075167104026226,1.783996736961865,9.558058107401397,-0.007713338222205076,0.004714028997245913,0.0044280684370270225,0.06444162814651085,0.47332082103517575,1.140289447855418,0.145154518201851,1.7466751963246525,9.75355410346284,-0.005840667062752687,0.002169631248844132,0.005471952988295401,0.5422677309338321,0.1125255985265376,-0.46438203197918587,-0.5768725341536676,1.7687113432013262,9.666664579826438,-0.008020840373342102,0.001880404428830669,-0.006865208510263862,0.3335944457383288,-0.07311694554067898,-0.6664542402576028
0.8106372658193595,0.16549723363360158,9.724681187357534,-0.0057745230439643575,0.0018531870159351992,0.008366533242549974,-0.36855050988965904,0.08713929492156154,-0.5527416113797163,-0.009133673869095152,2.3409971645110215,9.533247916409392,-0.008324622173952695,-0.004529148290738196,-0.012213753330628484,-0.8782074838775316,0.17154279470851275,-0.2453184000622217,-0.28235652126427285,1.814245601038602,9.550322962762182,-0.0025269141976558512,0.0020677501755853316,0.003700172678274909,0.05029133084321599,0.48970108696546333,1.1448746487541164,0.16686706891906772,1.7691112403410314,9.739575410382036,-0.0025121487610209525,0.0032244119585009144,0.007587026171325442,0.525691484085636,0.1294080463737882,-0.4602856041313491,-0.5627999633695637,1.783628217626316,9.62263509817022,-0.0077588313172780865,0.004354402110751855,-0.005653991054812927,0.3203767596213363,-0.056772388509158965,-0.6618668441382282
0.7985883625639701,0.18277696585298017,9.726991063927578,0.00032733822138397776,-0.0003851794343751637,0.01281540902555028,-0.36228740872534293,0.09484417347361626,-0.5650291818598246,-0.021037803992165205,2.3368045002907496,9.522311447429457,-0.011102455196310404,-0.004064539737875576,-0.010755655737013455,-0.8750047969354678,0.17853349436523214,-0.2563541492284848,-0.2998731113258363,1.8285457629552455,9.543164915628157,-0.0046836312538836135,0.0029663732369836966,0.0005943854780792342,0.05981299782297367,0.4833354457240287,1.1424826839734525,0.15350836096670678,1.7899092011824196,9.728684763583814,-0.00505297865391148,0.002589598921024365,0.005569790225075301,0.5361847499640617,0.12693401310601962,-0.4607041248532267,-0.564149901850443,1.7964925790627955,9.650044348742416,-0.006936556622712025,0.004704138647779496,-0.007363991838831521,0.3289572914839283,-0.06213686685057487,-0.6647053567909257
0.7894262138364969,0.1676779818503717,9.71351607929736,-0.002043961764925088,0.0027695131198321853,0.010502592936156373,-0.3650767355847143,0.08743732193040814,-0.5578281573571261,-0.027149434085747798,2.3138120677108756,9.533273466023637,-0.009511394829118792,-0.004900777080225027,-0.009749771044211927,-0.8771905757942453,0.1719778128469915,-0.2511756158828434,-0.3058404250904559,1.7890601174380074,9.555084575712305,-0.006623259840939078,0.0031719946715061923,0.004843346971190478,0.06150195332703487,0.46820289552880695,1.1397647570255016,0.15187167687506484,1.7488747122887998,9.755448007864423,-0.004935680659543976,0.0036452379051771584,0.006257273690806819,0.537357581231386,0.10935851691008623,-0.46223615268754203,-0.5804975463311597,1.7629907736543131,9.66749160870793,-0.007627116703324851,0.002967182753276647,-0.005584978630444406,0.3291224251563193,-0.07827110985985995,-0.6629273108445064
0.8032085647614138,0.1725048427608888,9.697881442565636,-0.005158007286290187,-0.0005170890542621378,0.010252359764685377,-0.3741461378847024,0.08426430590017052,-0.5555236747269406,-0.004071746366889048,2.3532963957277393,9.511120549362223,-0.008748982194472435,-0.0032091113253370804,-0.010365494154279264,-0.8813439644035084,0.17122590976787433,-0.2499784651738445,-0.28794270876209394,1.8085916926750285,9.54218372302769,-0.004753326182897497,0.0043717829077986005,0.0036070499589084043,0.06049937472707308,0.47599828227404317,1.146372416644693,0.16141002988425468,1.7894542098395203,9.739446592851895,-0.0034766214774705263,0.003430517938688532,0.005768476555792427,0.5368665482087537,0.11910496445754752,-0.457558617356273,-0.5607067367649132,1.7700824165011224,9.613728440084367,-0.007114395827412489,0.003265529280601839,-0.005741671492555789,0.3296442347649563,-0.06752855563262465,-0.6630434461416521
0.7906441144915832,0.1675093884187484,9.745858519793543,-0.002056835530266046,-0.0007020033721286008,0.011780593527787776,-0.36903958182011515,0.09224588328059198,-0.5509728496721212,-0.031035457858879872,2.3142522711472058,9.513601604846583,-0.010635455760319655,-0.00503152092641472,-0.01186417948858387,-0.8770469602084399,0.17694817669960422,-0.2429242418920371,-0.3086967208176202,1.8079568232420673,9.550900921511273,-0.004447475468880145,0.0023474901013902766,0.0027453313420394247,0.0597890672265089,0.4794238189205589,1.144424242130431,0.13068808009601268,1.759516962230384,9.752500998077641,-0.0048957701877020195,0.003558207023051214,0.00531316629236439,0.5390860071211617,0.12252188058038349,-0.45899195065513837,-0.5788249695645477,1.7672019703393416,9.663749829660501,-0.007436589864738536,0.0038089823331778905,-0.005699342047044273,0.32838404043416564,-0.06657500096470266,-0.6606126156778133
0.8110795665759747,0.17289487131864043,9.718118880772073,-0.0054639958959414574,0.0027292974871699674,0.00953915054266692,-0.37719294588619806,0.09244843769931677,-0.5647319125440381,-0.014030002387577858,2.330157358296326,9.55153113678401,-0.00825015064030532,-0.0038312982720159817,-0.010751280991729176,-0.8867590350022306,0.1821132527604084,-0.2555038837981456,-0.29851075989507925,1.8256911480985885,9.552798594551563,-0.006447181078436072,0.002548877820544911,0.004039767691067163,0.05345830799819002,0.481641550494321,1.1429207138600637,0.15974016261263274,1.767263904199853,9.753141492081655,-0.005132781297370971,0.002757682376325752,0.0074529791402271565,0.5313012095963763,0.1228078210666691,-0.46246833649914293,-0.5724098811390269,1.7812735969007403,9.655426659686908,-0.006500595474099436,0.0036858556393821545,-0.0052000822770176145,0.3215589452610428,-0.0614308715502919,-0.6604321456093557
0.8054577903452834,0.1831254881597178,9.72355992415208,-0.0025583159195262046,-0.0018315493273012937,0.012105913915007035,-0.3696517024748127,0.09239091204743809,-0.5622091508411393,-0.008815540892294207,2.3337316603460723,9.52927115973615,-0.00824817381048472,-0.003830261964380835,-0.010749276444312492,-0.8787077789446038,0.17976856214257478,-0.2522438672642657,-0.2903878186973218,1.813675878578481,9.562824709634532,-0.004542400922765928,0.0030469597657251557,0.0012976413383163111,0.06518541509343283,0.47722559458693475,1.1400620264688424,0.16070559454048602,1.7732479222258795,9.713762204741014,-0.003989791460657064,0.005033806008182143,0.006099494583361587,0.5425045557244659,0.11934380373433298,-0.46044461407363746,-0.554598468459611,1.7792433273599018,9.627682429999366,-0.008681073177184605,0.0038787603912085605,-0.004649297615764945,0.33482222031523956,-0.0643429150534744,-0.6653584074245958
0.7122789121565536,0.16976011713147482,9.671868639037783,-0.0025339563359112137,0.001005088903324087,0.009081741605226951,-0.3704345821062448,0.08892932181254345,-0.5585989867827661,-0.11043712786187031,2.3156212318104443,9.516407188108351,-0.008743303716280189,-0.0014196542475043532,-0.008609812770462777,-0.8786812044438688,0.17635085036643489,-0.2522083143298561,-0.40320095490865426,1.7637990954211056,9.579790511237624,-0.003377465021074597,0.0007283428038253091,0.008363396905057984,0.06423149211969156,0.48040776789289497,1.1381104189235087,0.06548716700664878,1.7529472276583276,9.71613498350406,-0.0010386024501300537,0.007142835517487601,0.011210354486843916,0.5403636746897427,0.12108861942396469,-0.4670456897893354,-0.6778296920935716,1.387992128510198,9.357641422133256,-0.00022280683525417874,0.015949380277623607,-0.03493528947745982,0.3321690113238874,-0.06699554842000435,-0.6676320118912918
0.9548892004036141,-0.05953919391216818,9.54362957636736,0.048375646393504786,-0.06558275860678926,0.028216470997171072,-0.3701765713468099,0.09696927909372918,-0.5572730367970108,0.03134607201391752,2.412872252692178,9.408489445060958,-0.014397282709947773,-0.010015771587710302,-0.01057425803887223,-0.8817056047628798,0.18611826113623553,-0.24989124148586792,-0.2129490751062998,1.9028777353387853,9.551172031206029,0.020845120588423163,0.0013519954910114589,-0.001977277382256037,0.06418551518774843,0.47868180876390953,1.143965265822173,0.17047029049069118,1.8563922899662757,9.89197789421882,0.02931153952829445,0.002233072248163904,-0.001447425236657139,0.539066491194531,0.11495715613850896,-0.4597568109346104,-0.5566234253514791,2.1397925852446553,10.208389898879647,0.0223214572531368,0.00840594176886309,-0.04242654872924345,0.33082884114895594,-0.06974789406546261,-0.661337698318697
0.9021731828950112,0.1864722412248549,10.15967835897784,0.08676956012675614,0.01543713507033082,0.051614592648103017,-0.3674327020721046,0.08778896223277949,-0.565662130296066,0.13984421369323524,2.2766569408133845,9.739841350356368,-0.01744029801353856,-0.00695778832441984,-0.00967205339271501,-0.8757301984583598,0.1777932758243111,-0.2565960544625394,-0.17097352127868187,1.750151584528861,9.427897831976633,-0.05235587258888146,0.014988946529258324,0.008659279496577327,0.06637647043575384,0.47769768955310715,1.1444659718039303,0.2697820936276381,1.7133856789892936,9.573037665521394,-0.060365184655857475,-0.006785405028078164,0.014861979480175622,0.5432265776345069,0.11884707975865424,-0.459220195577613,-0.46097055577515567,1.8512045957115117,9.56619483602644,-0.054641867417842487,-0.02790579238533974,-0.005005329303576254,0.3340448572299118,-0.06680586931666846,-0.6632018646054096
0.7879085739070856,0.11515586250364437,9.728661579136348,0.2631629887511798,0.077173260902236,0.03923599085357452,-0.37310699330150043,0.08360537759297453,-0.5616256967705896,-0.12730928927594132,2.337934635070648,9.391879249150199,0.0051758902059127225,0.008239995534705615,-0.01499192493192146,-0.8833237230345085,0.17680237600988685,-0.2522484482166613,-0.3679858364216042,1.8742454938729132,9.611557123584042,-0.02287451313459803,0.0032934592407626345,0.0026003546074597652,0.05705644224818609,0.48038728827682736,1.1514878560445245,0.056671005131395405,1.8551320416885508,9.901826236007773,-0.024324922766223663,-0.00807974309163148,0.00812952852202925,0.5334403027662284,0.12276776324575694,-0.45488387153570126,-0.6873043324038985,1.8991821590332019,9.982913417364834,-0.02148255762956892,-0.022804740445663583,-0.009604004055505488,0.32464518367076606,-0.06466256693168704,-0.6560184489228786
0.5795832338754896,0.4769969621914252,9.41524578642887,0.1742434294014214,0.06888026143638624,0.0049712915713073826,-0.3647159853671662,0.07395765702085513,-0.5731333887897673,-0.07983694270210544,2.249488848613335,9.553062911233926,-0.01056143331934923,-0.0012086910535171879,-0.01292823890474211,-0.8785553239509114,0.16941694739918733,-0.26165842140556106,-0.35408815908538144,1.7653009857612283,9.532585857252792,-0.07900655890405142,0.013673306541459623,0.008448416145286007,0.061720495970319644,0.4820926948805663,1.1485967949602556,0.14743508317087467,1.7361410570713072,9.662065494977341,-0.08301604399762788,-0.016899658424284446,0.014230173088421083,0.5393500053946758,0.12911191027740565,-0.45871745201407177,-0.5432160334061229,1.6922389385169707,9.206930837908118,-0.07361463756850896,-0.04616557698108212,0.0034500676313445875,0.3315757627648253,-0.05804261301249405,-0.6602179583619383
0.8517545307635148,0.7291567690840226,10.078597836652715,-0.03103038028232959,0.049938881976807424,-0.14132093728616615,-0.3733781071652662,0.07944110405996112,-0.5604602782984869,0.07049055923046149,2.1915874346430293,9.585239645079257,-0.014217864315607657,-0.0020571150193395235,0.01034453063701675,-0.886270196920222,0.175836263168254,-0.24908770105530212,-0.27016691874317417,1.7545807901349082,9.374283457652664,-0.07974990887015944,0.06598298255001352,0.002148460613061372,0.0595061823631551,0.47306730879976233,1.1475779179600456,0.1537627168398819,1.8325236704336518,9.700685734626981,-0.06418259133345974,-0.028030905356718056,0.00792375520853667,0.5378687542614429,0.11716665324770541,-0.46171049303863065,-0.584906678970766,1.4065763298301535,9.461540511015103,-0.030913323733182438,-0.022907497919811233,-0.012332098921972021,0.32873406865437405,-0.06553404268382192,-0.6664562062779942
0.8590546074216626,0.5152434024795288,9.733790092876974,-0.41703126103843524,0.0502911634523005,-0.12708279740510303,-0.36523631078681124,0.08996877933186197,-0.5648787372041671,-0.13065480126683726,2.1612868718203178,9.5228334642873,-0.004961877293172288,0.006678397150743771,0.009941851649689745,-0.879919246638696,0.17877953166716443,-0.2524869120026996,-0.2609597151305494,1.2849685381255833,9.748239627374955,-0.0599355817461645,0.021369725488647788,0.0010507698552341292,0.05582523692667987,0.47038690236361225,1.1492530931839364,0.16082371610419802,1.2707710930124194,9.702239825998607,-0.03643505186238822,-0.011546007844521936,0.02662872696242385,0.5361545344314247,0.11838808668011629,-0.46049726851507333,-0.5036282370417283,1.7972271326920186,9.733644241809019,-0.013328217677420217,-0.0032265938046280194,-0.028644977429965614,0.3264603858725572,-0.06971874713673869,-0.6628797745018509
0.9296916288927388,0.42136276957909435,10.421739399635044,-0.5941096673272592,0.14580996388040365,-0.22364579094292958,-0.3652471034409968,0.09530524102632323,-0.5621247769462543,0.23247533491210448,1.991798884182133,9.691750004190952,-0.022564761781563466,0.017628181743204106,0.015875640748324395,-0.8809167384375636,0.17904208352852724,-0.25005604556636735,-0.2477890281470863,2.2420880736359035,9.50489297629487,0.06802329769031235,-0.029278482466175315,0.027025518714966647,0.05750065199179258,0.47012502426111746,1.1539033557807181,0.32780090923526073,1.731036389939392,9.561544827253812,0.06875867835546644,0.021482932384862836,0.011104656904061573,0.5312261229872338,0.1181351404271865,-0.4546767973288293,-0.33332947410316355,1.8131800712143635,9.48442774423292,0.05109204531813256,0.04538545356482292,-0.024705613631828542,0.3244534505568139,-0.06755389343655212,-0.6594725232497106
0.5777920025651115,-0.20373770327732346,9.338274445914731,-0.6692503298708548,0.14035446190641318,-0.19492752280710185,-0.35378675128993364,0.09889570549214996,-0.5595145578954354,-0.17879647342459065,2.725230024727755,9.303147115963894,-0.004288517260064147,0.02784099616710374,0.03845448167812754,-0.8696555955176343,0.17208271174963177,-0.24672377868329218,-0.5012328828687671,1.410487719541002,9.976963498745754,-0.004486776340476494,-0.006038927041065448,0.015939150612979,0.06020232044144558,0.47622099315959254,1.153940176657593,0.2148561848066389,1.981908970134979,10.454353001610855,-0.012490931282893794,0.014117067205469132,0.012561024568174893,0.5381127183788751,0.12277120157132224,-0.45924232051677377,-0.6498930901306968,1.7710446506010362,9.798570778112891,-0.021814076996736112,0.006415056818239719,-0.02717183592985989,0.32789363405616323,-0.06243191735826782,-0.6598433271659367
0.6190995883728183,-0.023821779172007354,9.35732685639396,-0.7195196244600854,0.07871048687481333,-0.12401958149722715,-0.3551943931717005,0.11355786146440307,-0.5600757856371037,-0.08730600585508332,2.332334244330458,9.625309019980975,-0.004453387057802002,-0.012713353701154614,0.024740514210152137,-0.8765013829934953,0.17832346372873026,-0.25196804579802995,-0.24427879514198958,2.125520277908439,9.459554934834197,0.12533528413282902,-0.023814442632267323,-0.0003729174941721527,0.060965157650605756,0.4747682431425225,1.1490582370041125,0.11261985354759421,1.6866271865934734,9.342819241941251,0.12266037381201744,0.028343036560959267,-0.005656463541849348,0.5351335299044822,0.11690423239120179,-0.45538428414141907,-0.6382956331570034,1.2308089253456547,9.421169035160457,0.07744985891359119,0.04339302546990249,-0.029957784778471403,0.32737448924755325,-0.06439953592404354,-0.6584089130530293
0.6363157595328046,-0.561939788674773,9.548278255740419,-0.46266876718520045,-0.012220653947730819,-0.04885301483446623,-0.3637877772364544,0.11304313903594063,-0.5557801840334546,0.043729701561279546,2.7144475369803858,9.451710623778347,-0.027148592595198497,0.007624851085282484,0.0025269823955064883,-0.8798995344485595,0.17102373892905845,-0.24703509804465748,-0.26706796659493326,1.820777482665213,9.470286980856926,0.013325029326032778,-0.03326335967770956,0.009857471197609038,0.0534257125338788,0.4750442344474817,1.1450994390638978,0.180078482500225,1.7773720851273707,9.816765028068637,0.013904661700895023,0.024361900501819307,0.005828726612487443,0.5298082281583775,0.11548573136896756,-0.462023361348596,-0.4881257544260047,2.432029579207265,9.903161797127067,-0.0013603685278913578,0.027916173955668352,-0.04222272602692994,0.3211210625574794,-0.06944004206408926,-0.6646802766594575
0.7238926245594632,-0.6034589246025044,9.997980097561108,-0.17737907844933964,0.039532015347253376,-0.08226146692132065,-0.3669137857542069,0.11481267441539283,-0.559697914025147,-0.06946666567852182,2.2023618292866463,9.571649060292728,-0.015748165565809446,-0.011649985164257356,-0.005726274179991481,-0.8832816640818046,0.16925773622475296,-0.24997290991615487,-0.34013743593020745,1.7658163302594458,9.396262307751996,0.00017078518216632384,0.016463429312350928,-0.001971164046642666,0.05851368383356092,0.4767222130130746,1.151243570815986,0.08234906874901787,1.8135571036999238,9.59718710140079,-0.0004153187649870525,0.006872081460305102,0.006074749684257002,0.5329237922882495,0.11641727247408168,-0.4539382178543753,-0.6515407593979927,1.7060213510354425,9.577419414970834,-0.006894442829109505,0.0069074414302029334,-0.007568951047830644,0.3270707735578046,-0.0673599957067279,-0.6555163516180881
0.6854057900906245,-0.831664127476932,9.735465782620741,-0.07293926257746398,0.10426570544224031,-0.13714113131838945,-0.3549257472307021,0.11699019840078077,-0.5612505168887362,-0.005081045269072729,2.0694814579889895,9.656178130288128,-0.028568379150955222,0.023202151513860483,0.028775202115973557,-0.8725577837857752,0.17443836513355537,-0.25287481765171643,-0.24484471510314793,1.8347725453936978,9.664723862282129,-0.029561150712524204,-0.009824470340312419,0.0019419106786232596,0.06241515727901243,0.4723199156103475,1.150282467526855,0.16265087839517145,1.797564553458803,9.806100681776357,-0.025845088106484268,0.004004566001252399,0.008340127871302627,0.537829012331942,0.11641356829245281,-0.4568308622504243,-0.6155127623915,1.827129886730835,9.88946260939497,-0.029920452992828053,-0.001071689356595415,-0.004683682805968722,0.33081429646580324,-0.0687817519168557,-0.6603500669092749
0.5814181985820649,-1.018134922732591,9.165936633247357,-0.009467742017396604,0.048483203766688014,-0.1157868603495657,-0.36455503639880527,0.11373528801035068,-0.5523611863477269,-0.023323728004039437,2.158277974345773,9.305548445608506,0.014519627647914573,0.0020676124274249526,0.07648284259110583,-0.8816440926458368,0.1727494654910699,-0.2441370318740049,-0.24392538786558482,1.7345106665594197,9.459807984210052,0.004945653242058169,0.010528028727908914,0.0018156271956665903,0.06505977893395616,0.4727839604661348,1.156161743730098,0.2206841237718836,1.684389586032019,9.69236381166823,0.009372602421342432,-0.0036554916908461206,0.005831052336379854,0.5409653218653387,0.11492002423768513,-0.45266218816059756,-0.5100817960900998,1.7328546879197104,9.497844114710569,0.008152005294357762,-0.0029535489919514392,0.0017935674040597486,0.33220450592790807,-0.06932088997511456,-0.6561805952634171
0.681470332068983,-0.9020630412326232,9.745847833149352,0.3494141468052251,0.0353990427403994,-0.1262357808366548,-0.36619813774938775,0.1091986882295657,-0.5600054722123905,-0.02403738846509061,2.1499186235232095,9.759985011579568,-0.016362005082143943,-0.008174443184375355,0.08445354599611148,-0.8869970291717714,0.17920530549313524,-0.2532784428382406,-0.3262916056361154,1.804360963238252,9.5959240191841,-0.06569942854912787,0.022817460004212888,0.013109430966833974,0.06194496823946484,0.4772062706076661,1.1495602631878568,0.09733117997183406,1.9588533585227306,9.80962749137354,-0.07056342797943292,-0.006927597472753369,0.020160639822358925,0.5378682360319915,0.12374589631617461,-0.4587519588783685,-0.6743849035057948,1.9249685561787448,9.903506015580119,-0.06985299615812088,-0.026379870294002156,0.020049617378024256,0.3303497664048107,-0.055606261845251005,-0.6594805094382127
0.7804852921619423,-0.9919419130966459,10.280281005464882,0.6459275338973626,0.13430159187381494,-0.11779956159693768,-0.3569362416533857,0.09990852961366835,-0.5614888708770552,-0.08010777376899818,2.421901980924977,9.451800323581718,-0.03533127104111282,0.017806481849233786,0.09293465225507831,-0.8794894822296018,0.18176108479237518,-0.2478760843639539,-0.3883303764622446,1.8585445130005231,9.630203882771088,0.007427344547843701,-0.006526910928730324,0.006758980669896691,0.05531756900298335,0.46745324388415016,1.1509500452177692,0.0866650520581864,1.6846553290837252,9.747340976178865,0.007953465676188638,-0.003528793950989235,0.0053737378042802725,0.5336775155740531,0.11399073106871833,-0.45784909231112975,-0.609536498547883,1.6321414203501352,9.448429235893625,0.0019064631961423113,-0.00610960559425542,-0.007392469043857926,0.32443877364829604,-0.0697561523058771,-0.6590080122586287
0.7082483352038581,-0.725384317345789,10.019405055086242,0.635516195834107,0.3277518317381604,-0.19140076779058526,-0.3571302964238665,0.08367668840860618,-0.5714642470524033,0.028432014822709725,2.0022018350366375,9.518074522805652,-0.03715299418017948,0.021158403378742068,0.16694218807991582,-0.8840993765503395,0.1826536094502944,-0.25255891375297035,-0.30901804582209913,1.7825503250811539,9.48404309589272,-0.053573468551579594,0.0016446820904497217,0.005675906462783306,0.054592308639133676,0.4791648685293378,1.1541529144899785,0.16960754455371496,1.6598639502482113,9.753281901532985,-0.057801571974525054,0.005783010136098436,0.009170648943209132,0.5309978340532299,0.12399275786627385,-0.4541642155305658,-0.5102302713192773,1.7443876506796663,9.645631931766252,-0.05484007239233642,-0.007624457949746989,-0.005857940762404664,0.32300655065068334,-0.05949580649297188,-0.6591639548272481
0.8432817412886116,-0.7450439618728257,9.733033977314376,0.8438779868630265,0.5187538068787801,-0.36455384608145164,-0.34892768763108684,0.06578375766504285,-0.5681845143805747,0.005722234142838775,1.462692443924089,9.282215334265455,-0.07824936427600927,-0.009382325558994776,0.3246441799978947,-0.8820058996702427,0.1888490963721672,-0.24528239739186716,-0.2451896827306472,1.651373861494412,9.70424340527475,0.029130254104621365,0.02125609975231148,0.009575479785367085,0.0631624100616887,0.47086080251314383,1.147597463383776,0.1954512177019061,1.6237858648534393,9.727233514184492,0.031209326374492315,0.0015788433278309721,0.008659639599693639,0.538092642627739,0.11447454655254231,-0.46025535677652485,-0.5089202586682611,1.6036269338746543,9.435862458123411,0.02370616825044137,0.00973582761504869,-0.0046382412110433455,0.329182831400471,-0.06726594703094622,-0.6645140030625382
0.44902170295395083,0.4469140339769758,9.56517909735232,1.2834471723616572,0.582298839574013,-0.5899462499326736,-0.34163629162071774,0.03265084635712747,-0.5758514265674847,0.12719972069083352,2.045133737252581,10.68398029097033,-0.09142831766428314,0.049758507062598226,0.4292725115215046,-0.8820437232465207,0.19276486108588559,-0.24434710701777176,-0.4797701359292801,1.551456730662121,9.272819358437571,0.019294823587255195,0.009688508657171425,0.020169520364565312,0.06272103245857036,0.48088048175144915,1.1446932668041798,0.02782257357449508,1.7745985543038434,9.79137260939749,0.021542331399479017,0.00870602825985442,0.0109596496209339,0.5379144610375084,0.12645295206527318,-0.46362309811063623,-0.7203426425781949,1.8440251936375656,9.717679743955571,0.014645242365761701,0.020571322926753743,-0.011200795779377219,0.3336424526658711,-0.05724628733866561,-0.6665220677577307
-0.09252817553315648,1.4728215312729238,10.446397128398305,2.1415699375447215,0.5452691038519518,-0.22135274696778806,-0.3308987775539906,-0.006538674999096002,-0.5881977373337395,0.21055094968619834,3.285600846502217,9.08332135677766,0.1276211178345532,0.18320578353996203,0.2128596274101025,-0.8796012790765441,0.19471514509783883,-0.24654580316532523,0.17241980790139433,1.6743655338189747,9.747172569473076,0.0007521005611081743,0.01108407082044069,0.037079525776274914,0.05802674099609115,0.4728214639471426,1.149519768507812,0.6493214366264239,1.7805613817667334,9.747932857386141,0.007581053909166081,0.003680415710296647,0.031407040832044646,0.5358974619824524,0.11643277008818423,-0.4597746525857619,-0.1733141720870857,1.8011607267423815,9.59974977538121,0.005884626647406454,0.010067475202025031,-0.01919412132079103,0.3274135164849833,-0.0658374717775124,-0.6608656432694038
-0.12404154089140432,1.9348320750090684,9.438387391887575,2.101935355047462,0.5124762449908381,-0.030142744460118425,-0.3212713566081305,-0.045637749434608486,-0.5881011235797082,-0.3651167279671811,3.6833676012334298,8.638388657469369,-0.03648423762829408,-0.03256309881937687,-0.005450349067873189,-0.880091113825463,0.19471383602573275,-0.2463055112489366,-0.4250645852739602,2.172267442229207,9.50333220714902,0.015006704373188066,-0.0026242297494443825,0.016638338050354345,0.052243010455041816,0.47847740610090395,1.140949871111586,-0.041504680858933024,1.7603919651172109,9.566414803964104,0.021179401698403006,0.016753812855052088,0.01959797776597308,0.5286599053798856,0.1250348847185261,-0.4673620869552377,-0.665249469546158,1.6129642156092932,9.534152102212207,0.011491795725868942,0.026715779979130518,-0.011594626734034573,0.3195180887765405,-0.05913312712746221,-0.6689896168115871
-0.5812907342751317,3.457636938118395,9.423267829641377,1.405393555851852,0.5766892289590891,0.2062088637853827,-0.32236771440246775,-0.07028964872767034,-0.6077153540981745,-0.13517876125363587,2.6321281800610286,9.663077917472492,-0.10833462253983885,-0.07099685297991996,-0.14426314106554824,-0.890237610362477,0.19014020596276143,-0.2558575004695885,-0.4824688458301999,2.017888160797763,9.477671134281698,0.0034090114308188107,0.005301373736912401,-0.013424858083649231,0.05478817313424709,0.4601213756722147,1.1540991473972764,0.004344522939112902,1.7956954220287338,9.794903483023225,0.018154087679379174,0.007048293450037811,-0.0046990067005237696,0.5302192065381911,0.10350017902876886,-0.4571888154679901,-0.7208812106068248,1.8082611000868962,9.759419161608163,0.019646921263397475,0.023477824989640465,-0.004631026303712168,0.32320121614925135,-0.07463793082582376,-0.6588397418846897
-0.217171588083254,3.3810250763138754,9.4678039918957,0.6593120649375753,0.5701721406462411,0.3107429542059377,-0.30581830770542395,-0.06748936595176853,-0.6018859561574924,0.040970654512812316,2.3685679263795407,9.245590704253347,-0.06362938230974212,-0.153056051266503,-0.24577138008846003,-0.8828352608875776,0.19839482928901822,-0.24245822369831924,-0.2784219744697501,1.7532827510757993,9.647844170891155,-0.009551718746656045,0.019203154329664775,-0.001498181823363384,0.06460485643619177,0.4762131030157628,1.1527503482831647,0.1916973067104644,1.8019398019184976,9.861199664172046,0.0011099110184743988,-0.0023847152070769688,0.006442426942713823,0.5429722559097029,0.11884262568196212,-0.4580011112402953,-0.5887229425022183,1.8865341552087618,9.817094833866754,0.004910639092765848,0.0033291962005371272,-0.013290469455927016,0.3327804327047172,-0.06390483085158875,-0.660261482411848
-0.19624367558968395,1.6494840085589673,9.633380723394579,-0.16036872768168647,0.36718604231352886,0.1464696427895024,-0.3011589315290611,-0.0699123545957177,-0.6045529277880944,0.30612283889406006,1.5882195301833135,10.174660398725095,-0.022604623257794224,-0.059277964736923434,-0.16489821914751307,-0.8867218836249638,0.1947150895801103,-0.24122875211592376,-0.1710982098643421,1.6653147541669784,9.556047999752199,-0.023680868356585345,0.008080119260806267,-0.0030756684816836953,0.06392168266076811,0.4750162280014904,1.1454178204930516,0.3200698672916541,1.7492167211403218,9.6484326424979,-0.020914690651482336,0.0016891300689134644,0.005588693994404216,0.5408286317922746,0.1186365831766276,-0.4650996553254705,-0.4352449376402616,1.6539423179316957,9.430456884739055,-0.01857201288922453,-0.002177092676639663,-0.02080518992270438,0.3323577839538673,-0.06361894955256234,-0.6639285744363644
-0.5665762941199617,1.5603196465389595,9.100006127216554,-0.579898851667809,0.22529045403323025,-0.09226446282755563,-0.29698431390689556,-0.059442215368488927,-0.6033980315714799,-0.08978885616380913,1.971303009481287,9.527008824820298,0.000263577809081818,0.0007067951203174778,0.008718424020226077,-0.8847688328267266,0.19352215872442657,-0.2399803933721876,-0.41968066697001155,1.722102911691821,9.583009943918777,0.023170700331851687,-0.002473473613523358,0.0033202950794668333,0.057098947569774586,0.476746528215944,1.1441533976816518,0.019540881777432018,1.7748691963306547,9.784202218133982,0.030368157978887856,0.007537419533724439,0.0006756469062603319,0.5342115515730175,0.11888790215434739,-0.4617310039420004,-0.7269392553683819,1.7198212480811572,9.704974405002314,0.022729478436553343,0.021181183667312503,-0.02733693965047717,0.32654435314229757,-0.06576715298214968,-0.6669855252413661
-0.675582048578379,1.6512132291780395,8.413719317881721,-0.22638846574402,0.0603620821021613,-0.0834427238730892,-0.2959975009544735,-0.05651689628995814,-0.6033502980851642,-0.004053707926921113,2.4778020960701483,9.463634086324207,-0.0014163764685238063,-0.010044255195704451,-0.013209029724509524,-0.8876805774650891,0.19130234056830384,-0.23997967593597314,-0.3551210568852191,1.912015260347832,9.499477481021668,-0.00620544551182833,0.0034038307577493997,0.0069320435062345635,0.05949531773118382,0.476233505404812,1.1502730901285616,0.12193438823457649,1.7663699512922746,9.778769725962956,-0.0032548975078722665,0.0026894661924433323,0.006528998607210089,0.5368796841213427,0.1208181598207524,-0.45852815286118953,-0.6052815607543099,1.7825265380359372,9.749645024663074,-0.004270134188180924,0.007111525631250875,-0.0318336578829859,0.3300770088640491,-0.06293446591536217,-0.6590771963702815
-0.42429801724757554,1.5879977274319954,9.292786796528347,0.25689577593790985,-0.0750708310798412,-0.17196394716986807,-0.29334676298748574,-0.06896693812006946,-0.6042128302056374,0.12136930089533789,2.1668847193985825,9.611080888957032,-0.013717054076485132,-0.004545233057107412,0.012959304955103133,-0.8839508208205659,0.18519983602616683,-0.24257428759975497,-0.23961916825452234,1.8274910528572326,9.578591312339762,-0.004932096149503329,0.005774722563556634,0.0007017598492392716,0.0555637675908385,0.47233132935930505,1.1524309632953218,0.23254660862936594,1.797286106939098,9.69554132470259,-0.0017276404597787616,0.0039202655903463005,0.002191819368214955,0.5353789982026598,0.11398078774493611,-0.4568600953470989,-0.5310847065436051,1.8417160221748048,9.570794115345816,0.000918272564595437,0.007101502507478834,-0.034650850085292034,0.3271442713898054,-0.06877634361169259,-0.65992665848732
-0.3554365695591411,1.1606988281729693,9.449653962832445,1.0166537748351945,-0.08024931980391023,-0.23307423641912708,-0.29316202253745094,-0.08605941252532812,-0.604183663928897,0.016836285253776256,2.259452886441845,9.561963010825625,-0.004894789221966958,0.012051093989612696,0.008184652779809102,-0.8802967343799835,0.18692988151174847,-0.24329632908233673,-0.2879200297718648,1.7563092167649412,9.583019659007837,-0.011290579062701702,0.002481273895696303,0.0023581658727532388,0.06019649850805554,0.4759748749467018,1.1546714440029429,0.1715020365249928,1.6820936721344704,9.730345532988023,-0.010680940274084717,0.004315136018259133,0.0062972671854827494,0.5395325051403426,0.11981629882616536,-0.4546060586261311,-0.5718500516827711,1.6568553298483732,9.598714665649796,-0.012626806318455837,0.00605230019961735,-0.03551257775056487,0.32956320216508267,-0.06416742261119007,-0.6578796227974643
-0.4175850711951572,1.4509720077873698,9.372741857576226,1.9960323676371106,0.032025272285102685,-0.1714365214096908,-0.29507381964013846,-0.11984680114293557,-0.5963307558534816,-0.03821293121410649,2.3203400506097243,9.406317952096266,-0.012716974633090279,-0.011812837831461307,-0.008072630831949076,-0.8822908769272818,0.1886612726852121,-0.2396671674566295,-0.35560345213595346,1.8217895421101484,9.509180026940973,0.014081641751384951,0.0021427433991123073,0.005127244611993143,0.06800733198553963,0.47156483636179236,1.1532490358102558,0.13334841742203601,1.7739776406834942,9.72827286754746,0.018031460104394152,0.009871960364235927,0.00514563456442419,0.5444352715455988,0.11713085472982238,-0.4584863456749081,-0.6097995294061545,1.6644903643735272,9.562310662651194,0.013439756923259152,0.020231385268604553,-0.04037313783887746,0.33838283609129444,-0.06660991041806869,-0.6599484683018131
-0.18323963147038141,2.4293662894686716,9.992702507739226,2.946899236124593,0.2133746560464043,-0.14962485351828575,-0.289918209531824,-0.17045092200185014,-0.5927657246464074,0.08704160142986384,2.3409862814483686,9.5711617743472,-0.019895420344602475,-0.01690695065043511,-0.02315402336561251,-0.8803814897908727,0.1930838682586688,-0.23847722453490744,-0.25635726405461406,1.7637450746125982,9.567844640314359,0.015919238907147724,-0.0010987494633727946,0.0016027879566218898,0.06804275877717411,0.4806027176390179,1.151566413760831,0.19473142092902296,1.734985716624356,9.808968576854879,0.023172328736652585,0.006817362626665832,0.0031886462232497,0.5415194050286244,0.12275341889703703,-0.4577513078250386,-0.5514105261839457,1.9122797737955666,9.784865520701954,0.02207797410379976,0.019666373625488863,-0.04846574630493812,0.33524823164526657,-0.06340787618258187,-0.6616777643209238
-0.3307617820578315,4.3543884412363045,9.856325077682177,2.8983383221065497,0.4148725341184589,-0.15329577904076971,-0.2825683849883555,-0.224956005040709,-0.5902047084208978,0.09448783090901927,2.320362285513483,9.544324731938962,-0.0243893166128436,-0.016914098671872407,-0.025577475291291656,-0.8827236718135453,0.18689050431451265,-0.24526762234563224,-0.22646413660966108,1.8623833165979589,9.531608305502498,-0.003803374984678333,0.0027452058232842348,0.0033030685299777563,0.06212126299937717,0.4791289230619907,1.1598213834335953,0.23830142275268018,1.8656754792117127,9.665064586465638,-0.0015698445018572978,0.006186643077119156,0.005443941832562323,0.5400166517868418,0.12371110922914473,-0.4523874469094202,-0.5601718135207552,1.9815445469366386,9.6391576366465,-0.004660852490284786,0.007171240527619576,-0.03621584025476743,0.3328870959206192,-0.059118275476887146,-0.651659854914491
-0.6441510724818424,5.617553262393417,9.883613641361016,1.9246901235591087,0.5919064774488743,-0.2017910120869788,-0.2654426667468645,-0.2593022475498054,-0.5819099883400631,-0.059324449357645526,2.2147076848000773,9.535977896115735,-0.024431955209101998,-0.026550891041363454,-0.034003830836687794,-0.8759860127425392,0.19408166705950725,-0.23967506929555832,-0.40811538697344296,1.8187795976008467,9.575876773568332,-0.005617955927331194,-0.0013297121023963072,0.0007533199342278835,0.06091524775819988,0.46548070732066155,1.1526930905582864,0.06503215509610533,1.7433723493013997,9.760832862621657,-0.004914263686999842,0.008055294349917967,0.004862436256735342,0.5412207292855628,0.10907717014308713,-0.4565926306393694,-0.6605766317105091,1.8967526551893195,9.647434396712697,-0.013360667373418565,0.008394141288558058,-0.011965549354901912,0.3314867099507647,-0.07320828743683759,-0.6577015357322674
-0.7972718746539689,6.0672296743650715,9.671922143061101,0.5430024019856411,0.7284483526259132,-0.26787276864850845,-0.2610127335544181,-0.26827246314544345,-0.5880799678439379,-0.006650070402758099,2.283179135920075,9.549739221532958,-0.013347278825067675,-0.020455391288763454,-0.04325196914811487,-0.884227505634396,0.19248847565895322,-0.24582605109317993,-0.3438498035822031,1.764763780130599,9.539718136530903,-0.004556331301532515,-0.0006972819598463809,0.0034417611682317248,0.0507514491783454,0.48359191446176075,1.1465692686046087,0.11393546211656443,1.766790996943417,9.787168745103202,-0.007471748752189856,0.004303288930309046,0.007723793884253318,0.5303146678655212,0.12329275842874172,-0.46100872382170155,-0.648548318757773,1.7379975738661406,9.703620822987926,-0.010224504185299492,0.002897351836645406,-0.00423527832609389,0.32240523189447073,-0.058924752438169546,-0.6664948419509134
-0.8760347892902753,5.049531313788047,8.869851746867706,-0.513393104730905,0.7899170478215788,-0.275713718656877,-0.2480249982904365,-0.27069150689682686,-0.593342636942563,0.13883188714575384,2.2985452275633285,9.52009907950455,-0.030244383339860237,-0.02851833615302648,-0.05285543795537567,-0.8892744185732151,0.18171217306775206,-0.24526410247377348,-0.18829678374940206,1.8893729661825271,9.530609185418278,0.007250856572372748,0.00375623206337199,0.005520475038705918,0.060214600583365,0.47159292770624045,1.1505087589684149,0.23696498101876418,1.8653525499382053,9.718993056768216,0.008998484812454728,0.001792787703931188,0.007451794034234623,0.5351460250168225,0.11618068082678476,-0.457340389968259,-0.5554633992945747,1.9187855288322084,9.789715950781064,0.003443548393299507,-0.0008316226034684681,-8.24579189933512e-05,0.3278797871521604,-0.06901979070120148,-0.6601604234931208
-1.2034296896837455,4.0060154397836945,8.402194877798856,-0.4687425182153316,0.7891033546295829,-0.2713840095206202,-0.22764326069317625,-0.25408769238638557,-0.598773457895171,0.022908389917848215,2.3036429572571877,9.52467428184107,-0.04204293890636446,-0.03336703241186157,-0.06146512332324311,-0.8832864972163593,0.18892030110881955,-0.2374802704504262,-0.34478203218119374,1.8156165689186219,9.559961400801269,-0.03179533555212001,0.005853988587479207,0.0027734957627074744,0.05878349513318013,0.484048349763875,1.150290675139026,0.14168602696993965,1.770513396271283,9.734837865542826,-0.03614611974797929,-0.0013185340031256067,0.007925399690068885,0.5385851871095372,0.1276335642119598,-0.4550675425766339,-0.6091613414070272,1.8389892151839162,9.55382295931453,-0.0343866352212169,-0.015891143213721416,0.0026853991368065823,0.3276639247048797,-0.05413613195688846,-0.6592676022418675
-1.4355891508813599,3.480105999019233,8.602441197995374,0.09853067081680135,0.7717354728229466,-0.3173009258245774,-0.2160780895046824,-0.2579097304363377,-0.6084638437247212,0.08008382006820816,2.049148404237352,9.625463393333112,-0.020249402577540494,-0.022117948558716006,-0.03746001593441584,-0.8864478962810597,0.19346833975319855,-0.24389898577694968,-0.3041077709495551,1.7939463484863378,9.536329467560913,-0.015950226569550134,0.0010087115353614726,0.003583883706043702,0.0607260454414403,0.4759905750952966,1.1488160739419924,0.1550668524635433,1.7619049786696077,9.733892887498163,-0.018306980917153243,0.005054316516619706,0.0072482231787392,0.5383314973723151,0.11910005534740656,-0.4575474437794685,-0.5935151477585976,1.7602368744135346,9.611408388561012,-0.024006108302052586,-0.0018117323296485356,0.005561696068271642,0.3305688510328388,-0.06463939085089628,-0.6595764640792255
-1.6236962357300462,4.380089102161665,8.802250525352349,0.596424359415972,0.7694203317777143,-0.39682205161548073,-0.19761745385507223,-0.268540043768299,-0.6030283088037894,0.010199887613815614,2.241858786646712,9.619548043609877,-0.007947276693797642,-0.0006757919811454129,-0.009512500373216305,-0.8847275076100064,0.19129251751544493,-0.2431312785344355,-0.3658203726713492,1.7527702111170531,9.550408865562,-0.02045825305082509,0.0010914805676466985,0.006281224902744315,0.06318114740066166,0.4774534592631128,1.1473726837378615,0.11134091232727589,1.7264929736738739,9.758641721336986,-0.022881707035044427,0.0035092379677490724,0.006381557023807499,0.5390864979350015,0.12154800346206655,-0.4594841732851753,-0.6379217830406771,1.7271309665495942,9.724581772324282,-0.025658242053084965,-0.005387025422088703,0.0018322425732070745,0.3325966282807785,-0.059236739353747174,-0.6628997230569598
-1.7509603425764482,5.0100005240996826,8.837401752807637,0.3732583723459206,0.8507364195356983,-0.3916850358684313,-0.18244341329980973,-0.2782746745903858,-0.6095814336297731,0.00010598999289555822,2.320254622744436,9.453296408495039,-0.001574926650487083,-0.0023348951926735486,-0.029750340560820737,-0.8827690914364057,0.1917831866424173,-0.24434249441065858,-0.30106970783036574,1.8544887375933399,9.541898527957441,-0.007656021231960507,0.004701386493156714,0.007342523948734082,0.06635820782073044,0.47598304610645314,1.1464139333866468,0.14875525525353933,1.8161032574748253,9.730089662523147,-0.012224980553942532,-0.002653324063872823,0.008478446842895249,0.545196298158615,0.11885002703670425,-0.46140221536910425,-0.6140984129397576,1.7217672317660013,9.631484612285933,-0.016331268599252043,-0.008799881253150519,-0.0017767073111614145,0.3386382261094054,-0.06246090134014154,-0.6598981134616559
-1.8897027095361192,5.1140820138942775,8.624885826661933,0.0378015981818947,0.8847424265882515,-0.4489130261861722,-0.1695556929816241,-0.28397174533183644,-0.6065846193266953,0.183740709314503,2.3492614211204232,9.569394656998837,-0.029363645419170057,-0.023436617200234235,-0.039834191041201505,-0.8871602996386958,0.186914067294245,-0.23968629281521694,-0.18494713254531936,1.8426010952752947,9.527478390846895,-0.015118723719802376,0.0022650178615693417,0.004118436253125312,0.06263270258859,0.46474851167743364,1.151238109992915,0.27038287730215893,1.7950298887771574,9.711338310317764,-0.015802716084690374,0.004444404077597599,0.006694703110796024,0.5395239385502527,0.11274484214438173,-0.45658975114544753,-0.48444130184566364,1.862372717280493,9.61253021279748,-0.019825844452814153,-0.0018443732278257533,-0.007311709453287775,0.3310522043769396,-0.07098032780096432,-0.6603701643627131
-2.3504474821052614,4.6463099486779225,8.355906188301637,-0.2698525934754567,0.8594021190278357,-0.5049275319271426,-0.1475131298798044,-0.2800750293227321,-0.6116697173834378,0.03375372452985685,2.107359427513806,9.59809521388114,-0.011478574250878221,-0.005335556246940912,-0.031520099709594906,-0.8830350567696744,0.18891212331759025,-0.23845434581994415,-0.3114415168936828,1.6775489615866264,9.587253823485618,-0.019280416628331087,0.0019013083439141,0.0015257857711149017,0.06268056378151954,0.47257176528437317,1.147354993678958,0.15673106433553846,1.6155091532494081,9.737601277362185,-0.023579386785813918,0.002593390528455299,0.009867403324679822,0.5413005734808186,0.1191123871702513,-0.4626518990871441,-0.5355619553632058,1.6732425931456565,9.51472667669228,-0.028128369753868572,-0.005305202228374517,-0.004926893474158145,0.3354637160158807,-0.06318349584487841,-0.6599621122728463
-2.4553840320134106,4.305904127873144,8.471224848216673,-0.31301807619511285,0.8574467307802903,-0.5319075224456812,-0.13039433534776912,-0.2805857687843013,-0.6144223820873846,0.01239851945410042,2.242874166400938,9.486896371434266,-0.0061331056251921956,-0.006086843153543279,-0.025731021099334537,-0.8844885129038162,0.18695282941281693,-0.2379571429832229,-0.35403554938549103,1.8407081081724286,9.534065672404013,0.003733033283838018,0.003783151432880748,0.0035155404616715605,0.06585967208789978,0.4752487843504259,1.147629306085339,0.12530082206284834,1.7825305622485401,9.745970004961091,0.007598533449155422,0.006349379800775349,0.0056387122259938215,0.5407986078411005,0.12081245444203768,-0.46020729589481557,-0.6415916314777157,1.766249274810724,9.697132267461052,-0.0005387317639559303,0.008365888841460176,-0.0019695034853579423,0.33622345934975967,-0.06243751704035231,-0.6614057807561984
-2.755332677991915,4.535455294163688,8.550061320361946,-0.30070396238945407,0.892439860738154,-0.5762872618650756,-0.11092809296644567,-0.27679353292693837,-0.6297919491845314,0.014154877537855812,2.2663032177184617,9.548657581555528,-0.003134799681815478,-0.004465863938707008,-0.017508204255029865,-0.8824639023169523,0.18783904312989366,-0.24820569108620913,-0.33006144900881745,1.823847471984916,9.571002984237463,0.001681126144531247,0.003200544932232416,0.00553835724948607,0.0602462449734473,0.47380051716203164,1.1468532698866016,0.1349741233749854,1.8054659785572142,9.742939893664058,0.003105569362930562,-0.003005940526220995,0.008190060163689235,0.5363969068543887,0.11789927634764594,-0.4604975282395615,-0.6295694305053127,1.7955338980633282,9.583618296907943,-0.0012298913351983223,-0.00025260667938181497,-0.002615053951477059,0.3291561572705485,-0.06289651799467563,-0.6622677131463013
-2.973895849771859,4.454799260954829,8.543374538288194,-0.45530611322024117,0.9395953503697204,-0.5612874893634092,-0.08920653632235366,-0.27371461173545614,-0.628053931274916,0.10704541274911955,2.2947645002201513,9.576506050050652,-0.00039592286649839506,0.0011091718299453019,-0.045362245038527794,-0.8829313562376392,0.18055879831126348,-0.24349457771325336,-0.24560046323277798,1.7519171453395448,9.562728536797914,0.0019829943854933036,0.0011802653936704936,0.004675621976550913,0.05539534716425765,0.47480123024441745,1.1426706355765597,0.2230559063133811,1.7235121273407745,9.75338330666877,0.00287946337853278,0.00955644525684321,0.007166565893414188,0.534255025854366,0.11964409538820606,-0.4670986115822744,-0.5065020148887363,1.7882138188267371,9.634137406742013,-0.004983686950373822,0.01083874216886385,0.007090366039744792,0.326350178977857,-0.06329762468747098,-0.6694031909328225
-3.04156772449444,3.932335740111263,7.627541010857976,-0.6855038448732313,0.9155505866791407,-0.5268766322703045,-0.07715414399096145,-0.253226578366743,-0.6296175663898632,0.08040578958478617,2.3041089020036267,9.418332853051377,-0.004984231887769968,-0.00637937869470462,-0.06086412419445864,-0.8888974028962868,0.18862969976793376,-0.23776414597179138,-0.2438041806857913,1.8410847433654771,9.56253752554922,-0.004797475064626399,0.0035807968998305593,0.004325466976691856,0.059990286779798445,0.47452748973904946,1.1488066170844569,0.20529099975182036,1.7687110283002165,9.741812382595144,-0.005343830736525957,0.004721661211088477,0.010156955521565652,0.5329822636813382,0.11888671523286853,-0.46051935594419424,-0.5645304106350485,1.7456259883678842,9.711342938751821,-0.01024208794179175,0.003209768171461491,-0.0005723433218592115,0.3264513518890799,-0.06363133165910098,-0.6613473476064462
-3.625365383537729,3.295839565729424,7.459829017679614,-1.011954002968633,0.7634841203449817,-0.4272164174394631,-0.06674683775523615,-0.2401935927389718,-0.6395956370722217,0.01780309683662351,2.099726972808878,9.630994035339803,-0.031111375061861023,-0.021641252740589964,-0.032354490609158404,-0.8905667064354436,0.1854223469641426,-0.23969688487970736,-0.34649502956602574,1.8116135058655298,9.58035925449112,0.004313322961362129,0.0019170467179433167,0.0040622680748824275,0.057523012818933565,0.4720850821298236,1.151467119719756,0.1434347445641197,1.735209738707199,9.744808090985298,0.007479243165652311,0.0052937518387530785,0.0049502135447616405,0.5334413084916712,0.11521364307391767,-0.45833463267173014,-0.6230711273799978,1.7382085002222463,9.535841246937762,0.0030027786055898506,0.007658177449558759,-0.0013467114749943956,0.32620255205000276,-0.06850790134974118,-0.6618937318049775
-3.9430852632422426,2.483959631384506,7.714089535540017,-1.0532808629328883,0.5584015932165519,-0.3214110097983047,-0.04196002401118183,-0.21945865934643702,-0.6446816074442061,0.03339456976050016,2.2613824662434916,9.602790905664614,-0.002985891350713512,-0.0016680036592094127,-0.013521673662479737,-0.8783400562475345,0.18645726089291623,-0.24327649384473857,-0.3359184821428069,1.7796440178733657,9.561818143113339,0.015831970330460732,-0.0011951125887312774,0.0038629561679712518,0.05186708377593069,0.47159542498694645,1.1570407448007014,0.12981121849511346,1.756576283513158,9.742271198890222,0.01799165889550185,0.011532468047314478,0.004144465698444115,0.5287417884068094,0.11714418795434792,-0.4495728658158598,-0.610850704428089,1.7550927436817638,9.60082444544073,0.01022672164381434,0.020089865863906868,-0.0033983718145854675,0.3201977778683992,-0.06712012393779807,-0.6534374978983941
-3.7234166154660513,2.3145415731046537,7.3172120770696925,-0.6470670304789388,0.41685396605702213,-0.2080811370083774,-0.04022928533255268,-0.2191958881406697,-0.6466139189925121,0.08901515728515891,2.2292386368545163,9.480545086882849,-0.008485961007605899,-0.003928893057362792,-0.013323285410183133,-0.8834261895622352,0.17621688475511074,-0.23808200460503892,-0.252557577064046,1.8630893863160949,9.539586490747691,0.004148284240421968,-0.0011180274917783621,0.0018242413185471146,0.053917953683505146,0.4787028176145099,1.1458455488819217,0.2090049627754317,1.8417562843379238,9.777597716980127,0.004928498909753032,0.007578350737948998,0.004466573584884845,0.530588016139645,0.12428269290949392,-0.46442048970535355,-0.5792824268122684,1.803266160451584,9.789122362495306,-0.001508133104093238,0.01027485325445405,-0.0070306108653354635,0.3224065785785146,-0.05843578440943049,-0.6664894148602442
-4.163497890488538,2.2364381346072686,7.746408488795684,-0.21705863372306994,0.2870845029726422,-0.1174959747617982,-0.03438174220766353,-0.21193643766197642,-0.6430404167678085,-0.011756066163697051,2.2718853122401352,9.57731430403466,-0.02526703869733997,-0.014741851267934045,-0.008956271750077486,-0.8812875933295614,0.17969477161874614,-0.23395129738746157,-0.364070953341882,1.79394016653488,9.559961794322534,0.00010336070009175348,0.0007733006894494439,0.0022090377111705353,0.06461635313709939,0.47329190455473663,1.150055890197173,0.09037960506891214,1.7295129959371418,9.722415197827962,-0.00039937561950713243,0.006832071646061247,0.006064698272596029,0.535408500606534,0.11838315956294208,-0.45879392496322147,-0.6241213372237082,1.7942102735995848,9.555103605538864,-0.00495678782836553,0.007079770916544586,-0.002221706369846561,0.33107735347715217,-0.06340912693746656,-0.6605301081257334
-4.108103840014367,2.716794971930044,8.02976826043472,0.030177958486013706,0.16841973241532054,-0.027737650220742614,-0.03844708891928114,-0.2098761373669523,-0.650383039242692,0.1231405621696885,2.1662020148446874,9.663243790649616,0.005387854261818473,0.006060079693424303,-0.013778660260081562,-0.8900223926880751,0.18245197212275707,-0.24405736717483137,-0.24442009009954177,1.8127946269313717,9.504722524029383,0.0051237763298397805,-0.0005759138841156497,0.006755875836622252,0.0555905374212946,0.4760003742816288,1.1499997083242939,0.185081623413541,1.7977714728942158,9.72962603293592,0.005106870145697902,0.005321729630637303,0.008147329197557715,0.5353874191299554,0.11764062471600141,-0.45635620008694355,-0.5719300649882922,1.8073889346861756,9.67435274895052,-0.0009940662943944212,0.009689738165670734,-0.00048358813373874444,0.32619203915711636,-0.06607785491877441,-0.6608898524185824
-3.9732957764986256,2.688471478602335,7.495633573572079,0.18359462593490605,0.070260162628293,0.03560165129973236,-0.03772806463450196,-0.20624800369073087,-0.6478869328536601,0.024948875689812897,2.2903045863246247,9.427467782327511,-0.014184280465974879,-0.009542147594682655,-0.007889307507243938,-0.8896194694437711,0.19078288424448558,-0.2414542351998373,-0.2813421073080369,1.8226240745865567,9.518062477779287,-0.0024302794091176794,0.0036238666714431766,0.0022063212234899013,0.06103254722276115,0.4794298364685816,1.1412589872768628,0.16968247679884654,1.7478520806594275,9.731636772961007,0.0007651455508571961,0.007495515731256822,0.006686487135146897,0.5405856644877305,0.12399882456207113,-0.46288026008956523,-0.5813881908100409,1.7568893123699518,9.641227797148911,-0.00611744747514503,0.006970972923960352,0.004715119286110732,0.33050172356083146,-0.058191288990038365,-0.6685413514345971
-4.214583361783314,3.334574934043459,8.294777035642268,0.11675512976072733,-0.020911677766395482,0.06494297533644543,-0.031174291955501154,-0.21020465586428372,-0.6456693005014651,0.07212936576330349,2.230657092901094,9.621159061412852,-0.02292763636239538,-0.015626875954317325,-0.005027924894242582,-0.8837444663934512,0.1876678023906277,-0.2401560359845793,-0.2990593632050223,1.8137654774473597,9.592253321339701,-0.005957026074149079,0.007313015314267437,0.0032280189536615105,0.06607500765254914,0.46816396045025693,1.14907535653335,0.1393727808660677,1.800531772346325,9.7665350978239,-0.0028486753311033476,0.004452571780556706,0.0041296273920238035,0.5417306800353974,0.11176787810542041,-0.4582861745254791,-0.6027899157639468,1.8198268096205745,9.65587476030942,-0.006876363422145898,0.004793676451020589,0.0021241149143830726,0.3325228918121528,-0.07195519302324685,-0.6608430927571769
-4.036579326871094,3.297979228151004,8.353838265448308,0.01610932918472839,-0.05803050971269417,0.07727888301925025,-0.03633351509724891,-0.21703446322937317,-0.6448353365157773,0.004928244746403729,2.230976113163121,9.537083513123562,-0.008871313162274524,0.0008644563264769234,-0.013232795624374648,-0.8883357998531736,0.18201178528489328,-0.24062164801328303,-0.3331835779107351,1.8405055433492883,9.545651339329503,-0.0080501662781995,0.0022961858211681297,0.002950633079189288,0.06215511085404937,0.47816677958098747,1.1546916863426653,0.11008281571566987,1.7776786352391434,9.739836519156697,-0.009091893894145315,0.0035265268693777004,0.008443085493891452,0.5400371767567637,0.12372271348423312,-0.4550733434202473,-0.6527713373965137,1.7446682980368722,9.655806663980215,-0.011935293785751377,0.003991582345848429,0.003473300825456347,0.3317112564042124,-0.06152314410163185,-0.6546378123234164
-3.8833345993877417,3.3710118838536283,8.681214896667727,-0.04326379203202361,0.0047894304724246635,0.05084328003541491,-0.0347664641470756,-0.2120548278563818,-0.6528124101566316,0.11193182054720861,2.2281183396440136,9.522425178383392,-0.015586867100857913,-0.008806785796895216,-0.012291990071090927,-0.8853575940008819,0.18269451123737154,-0.24768654462789738,-0.25243866746076665,1.8177934644915112,9.548943420188884,-0.004760600891483325,0.0028870882434289488,0.0028186751545118687,0.05558565576816522,0.4774618268519028,1.1512249424057257,0.22717053804189236,1.7909744714637157,9.755687293035177,-0.0026779003641712986,0.003807548759665356,0.005843211709526024,0.5314981665688632,0.11985595133806765,-0.4575963966333036,-0.5550336535153719,1.7454929115289617,9.634927445265458,-0.006658679940380788,0.004729181223560363,-0.00013824762672334177,0.32567369853891615,-0.06463308841955827,-0.6589296098911724
-3.969481221403189,3.253436532684442,8.548583129406747,-0.03623431802053465,0.051312635793630566,0.014932114602325441,-0.033881657628492205,-0.21532798355484192,-0.6452753684161138,0.11863213248327528,2.2274629886884454,9.549979412469725,-0.006188538192586208,-0.005137812977810861,-0.010119969310424816,-0.8863977743464556,0.18156442057147495,-0.2381600146229304,-0.2360621119986319,1.7950455580309406,9.568666282452176,-0.0042065691613070435,0.003989196871729795,0.0019507716959505474,0.06240429685324414,0.4701208121922401,1.1510080426143687,0.22118894068963235,1.797628641177304,9.759317472581454,-0.0025091220099894445,0.0031635324256839977,0.007556785118728232,0.5392824306789888,0.11323470997455697,-0.45683348964687287,-0.5270548166281931,1.7780741720212467,9.634910977888378,-0.0066455333610438184,0.0012855038325343432,-0.005777283465764265,0.3310018804512099,-0.07052371959882138,-0.6574363718594446
-4.08376057972085,3.2932288425400236,8.405404477594193,-0.04748946689654096,0.08673098800698091,-2.876135030494204e-05,-0.029665585749527813,-0.21429130199353144,-0.651076656139701,-0.006317946780238379,2.256019395651941,9.53243122203946,-0.01699097550755536,-0.00802713709215466,-0.011378702887649748,-0.8839243129858446,0.18226503605512132,-0.2430317703476809,-0.3496433392522393,1.815842959498107,9.535653859278801,-0.005354294077367763,0.003273455933781948,0.0015035442070828009,0.06290110095813428,0.473537517268961,1.1510214627512394,0.09934486583222475,1.7640666534220166,9.69459791501918,-0.0038105387066189257,0.005958449054287123,0.005817848196096548,0.5397533973755505,0.11566026817492082,-0.4534012794570131,-0.6353470830954041,1.74014053298522,9.540878122822296,-0.009395832812582359,0.006993492386999202,-0.005510681535979456,0.33199217227233946,-0.06564392016823188,-0.6573649741968614
-4.184647605436601,3.350659066949677,8.595218741271836,-0.06365352813176431,0.08930776389763675,-0.01504607390592836,-0.022449194971848226,-0.20836628190566747,-0.6389591710828822,-0.003055080341640787,2.21829002936291,9.633611716444419,0.0009623184517876013,0.006728129515668496,-0.014701449092444578,-0.8765046896283267,0.1868731299977015,-0.22812852380711363,-0.36707523216853055,1.8261619144526995,9.57308419116352,-0.002139008047198089,-0.0006689117765890499,0.004263014732458979,0.056010192040808676,0.47499624115747235,1.159278049268088,0.09939591573860526,1.8068610630689805,9.796781125704081,-0.001187027127349166,0.006407134290531005,0.005959839576871089,0.5323819083227759,0.11955700104499627,-0.44562747394850594,-0.674507831084761,1.8215863198079592,9.804015116414492,-0.004500323711643365,0.009488197641675567,-0.00326027038800813,0.32451407662000603,-0.06230804517624464,-0.648180050601513
-3.7876143533517044,3.531285885765068,8.736091567549732,-0.14664983558663225,0.17452964344806568,-0.0672122396242291,-0.02569869806586639,-0.2088849232664683,-0.6548719159680624,0.11407923231399285,2.2868774396762594,9.462381913447977,-0.003495254970472625,0.00031885982099896315,-0.02268787070454032,-0.8851288261451862,0.18489071874970997,-0.24795153298792189,-0.21073087975822213,1.826893453590135,9.517199698646436,-0.011362148190033372,0.0038777496570651625,0.005349790566447662,0.05852344293361671,0.4791646078956837,1.1507626997341245,0.21981448800949893,1.773072853651129,9.698103523511007,-0.0099143756413264,0.0002892810785637222,0.007735787490634599,0.5359054644244223,0.12277329185784193,-0.45803813173952385,-0.5232717418213881,1.7341417664114307,9.593113290783219,-0.012472797660231337,-0.0010949202152959478,-0.008541980581168748,0.3269732249225341,-0.05946956646393425,-0.6625124141269729
-4.0758564166824,3.442325176579093,8.671858743012804,-0.26032740654613856,0.2798402328020403,-0.1334896484198734,-0.01913772527817012,-0.1975155521731832,-0.648309187646527,0.1106716985849404,2.229721788468403,9.616170718573354,-0.020469865773464622,-0.012493824768572642,-0.017364574479915785,-0.8828061555819511,0.1901425072197398,-0.23773326281529766,-0.23691213834988117,1.833583074050984,9.569684897299453,-0.010545925795366302,0.004450046361531318,0.0014391231701454481,0.06564858580001648,0.47526285460930606,1.1429887132776384,0.22088605079397067,1.7723520738340055,9.751998674384291,-0.009934608193007248,0.006407846870517228,0.0053409744930523525,0.5435011605846931,0.11740232576388782,-0.46386351799782827,-0.5366936358143831,1.7862644719046035,9.620114220354491,-0.012541562138447105,0.005343281977893782,-0.010487485391274002,0.334358798301666,-0.064813258527595,-0.6668370994323134
-4.305052084939102,2.855150276223731,8.261854341660776,-0.29195693811127477,0.2886876489644753,-0.1591932993126694,-0.01420524374999874,-0.1928538194971953,-0.6513714026017309,-0.008210708531420391,2.165771759336053,9.554320942420233,-0.004627159977917434,0.00035002308533048837,-0.008847694805908194,-0.884474062321504,0.19031499267627133,-0.24336325196941141,-0.35780402892233254,1.7720032825717804,9.58073632368686,-0.0133423075721961,0.0019047339635431774,0.004358000823433109,0.06680934999107796,0.47377206466259725,1.1508058589093597,0.09127954361115134,1.7460478051694241,9.766010189252118,-0.012135741692631935,0.004511024316518611,0.0067440138779137175,0.5441664618605142,0.11638702489559055,-0.4555615006309935,-0.6565146003251563,1.7602688738820709,9.65533388290482,-0.013190889500896842,0.0026900569302918775,-0.010862334458435633,0.33598703301318633,-0.06438158256549156,-0.6621635939398653
-4.301091789277984,2.581812719612438,8.172840231279084,-0.06991401475046433,0.2840671243975628,-0.14846328686571444,-0.012554342866452167,-0.1960892920845642,-0.6469990776585126,0.0414791559020206,2.0616090938891216,9.621693337097701,-0.0012735240067312983,0.005109138453113798,-0.01993821578956334,-0.8896171721065387,0.18763945484254876,-0.23849146245842073,-0.32407442478760473,1.803538520275994,9.558772274222944,-0.0010391734900531313,0.0043887492280076735,0.009251611139214232,0.05881341002738961,0.47552462958999625,1.1429409847036054,0.12470505983168044,1.7733522369154233,9.732201269091615,0.0017774660959480972,0.004282986594948662,0.006024318227421681,0.5352231492213704,0.11866066937360989,-0.46636243400853555,-0.6114311847083518,1.7438104425118028,9.646431438456654,-0.002967663743946347,0.007556374959072196,-0.010876225649588785,0.32973710112765464,-0.0650327675176864,-0.6678982860487975
-4.244716577621742,2.5353886786285535,8.269752317359409,0.3103421206319578,0.28993078454970134,-0.14038129907524713,-0.002276595299371867,-0.20363375886010485,-0.6516238357084151,0.07961768509027661,2.180847621917057,9.56919710880378,0.009510024712811864,0.011161494354861244,-0.021187546831290028,-0.8826837100634218,0.18103956894266104,-0.24447473942051454,-0.2381347475080827,1.760650273472815,9.542718200900536,-0.0007176871829193413,0.008180402271264264,0.016644090206069172,0.06709070932838337,0.46573782373747863,1.142727348360969,0.19705488499275248,1.7651975597707033,9.75348871736114,7.706267322569592e-05,0.0020676977531284115,0.010602930413150085,0.5422340776927843,0.11080080322851797,-0.4607275999249131,-0.5728668905220081,1.7508917843235132,9.67435603804295,-0.0019813346774103617,0.0030952457908701727,-0.01816369156835118,0.3345434299761647,-0.07386796443366435,-0.6649804772038123
-4.395827729916702,3.251498838860708,8.536788506564857,0.5451311761240814,0.34124622986880876,-0.17949246412844136,0.0028623172081376196,-0.21166159193394415,-0.6553328917040471,0.058022095269250076,2.6479104043738055,9.48347056516039,0.0026891601546922936,0.005464723447929886,-0.012560015497604316,-0.8841424243950851,0.1839189506554931,-0.24817796699256692,-0.2965161156401623,1.974575611371287,9.538909543781374,-0.006281044196049515,0.004783322842306948,0.009921590366142784,0.06487860252091443,0.47232276058208417,1.1471258575657914,0.1709656234290009,1.788393593891011,9.744715232412291,-0.006127351804771178,0.0013964181459395512,0.008498538416825456,0.5407720249161855,0.1161681945646172,-0.45876250783455025,-0.5638312214671818,1.8133488788758738,9.668959298396723,-0.0064732259021082605,0.00048445686160458756,-0.016092328637258155,0.33573702146938555,-0.0665777193323198,-0.6621922737123805
-4.705416237710089,3.7301225052349967,8.641844477069615,0.3936119126277177,0.40887580011858765,-0.19182257890283577,0.008397770493292803,-0.2180958725444893,-0.6499832127461446,0.010959298235846848,2.2279071192277375,9.614414712260988,-0.007513965995271147,0.004215661673897758,-0.032232657502494856,-0.8853971221486944,0.18540454072936696,-0.24527267497979177,-0.3257110749944839,1.8560781476358934,9.535096138009802,-0.02876883227980896,0.0018709370770108107,0.0018174002613866526,0.06389617550890336,0.47451733229398946,1.148834294912426,0.11758964874778699,1.8772405330150161,9.767377078103358,-0.02974648710075339,0.0018532842351977133,0.006773961005813352,0.5376312974832271,0.11887750282777107,-0.4619489254040268,-0.6739153016214847,1.8991677547023595,9.746169162445685,-0.027493615034019345,-0.007756814528063128,-0.011621231722084124,0.3318493557292111,-0.06289903393729132,-0.6627093257959051
-4.629023455872871,3.4917531598953953,8.305519096947119,0.16475979871046253,0.4391169831606522,-0.2080926142076536,0.01958183543775005,-0.22718707147777883,-0.648512996682595,0.03722442554543426,2.3224549452375642,9.607650930683597,0.025373699343128425,0.026880397300203192,-0.057600955466274625,-0.88388479247629,0.17955501690542952,-0.24544464007844305,-0.2867827261584931,1.7890808268531586,9.577085467342846,-0.059897829559869525,-0.0007550521381449587,0.006373114802473181,0.06781292598267935,0.4659756753244641,1.144198203461523,0.14389798096505357,1.7856374834521191,9.787257127970584,-0.06301842379636449,-0.0007941851536302781,0.0055822310202602215,0.546144657137375,0.10884107289423395,-0.46217123956984946,-0.617336101283174,1.7610188862764427,9.823479748543036,-0.05636642835455052,-0.02334463847694603,-0.009790397077341372,0.34016062485558374,-0.07120239516096752,-0.6646078538831754
-4.743769115897331,3.656185121673672,8.34836827462066,-0.1254397751916668,0.47758322932992153,-0.22133797995072516,0.02588494755029549,-0.2245855117873878,-0.6435284847833198,0.02603092360854163,2.2807448016729976,9.496553627880099,0.02383225812755612,0.028581272737456573,-0.09531443762751086,-0.884613721334373,0.17737012042001532,-0.2437184682828564,-0.2800353641775334,1.8413084875272472,9.670177327157814,-0.07142770556806716,7.077605232741631e-05,0.009434809273743898,0.06854491348454281,0.4767053776099484,1.14814058753236,0.18922225738533271,1.9207928003584052,9.83841635083352,-0.08445445470414178,-0.0032960000261730935,0.009240760815729974,0.5449608042049958,0.12421649364980097,-0.4601607824517354,-0.6591246847851617,1.9105757439802145,9.899347307774049,-0.07993658071621221,-0.04163701294217668,-0.017260913262440725,0.3335653223848537,-0.055588651118183965,-0.6618651057565654
-5.236014554266533,3.854414093145138,8.287199962079965,-0.2681108884656841,0.44490776406200944,-0.08365554837836377,0.035929193913061805,-0.21582619667759168,-0.6437973319729144,0.05208648575325439,2.386336988272245,9.733506166204787,0.021174407128621023,0.05574249183142841,-0.1595739600222246,-0.8843475891994591,0.17903291465873516,-0.2483730173487108,-0.3124381975628563,1.6305938420923045,9.646038484894166,-0.023412975062379424,-0.016606408385679592,0.022879495126781745,0.06198306248360294,0.4638080705659587,1.1392674266268814,0.19009347700810725,1.6574472194140275,9.76058228436878,-0.040190153818596294,0.001370951809012442,0.028628914355506657,0.5357123636456718,0.11622334565996725,-0.46759027290756533,-0.7125941684272397,1.9962848904635033,9.929145427885151,-0.05241665675793189,-0.06226245771368976,-0.008763463685789348,0.3280641704395581,-0.06451818243468312,-0.6698755414964257
-5.404564368236193,3.29180314177106,8.080829877642449,-0.1488241126697491,0.4061576059720788,0.11509889175874537,0.034221513425995775,-0.20925354730912055,-0.6417790501211331,-0.0780137810589755,2.446701959271562,9.78305520951178,0.004805902316304098,0.1473535776385092,-0.2254649028630797,-0.8889492794314005,0.1745993363942011,-0.2486063321178657,-0.4279197751147995,1.7215501174116679,9.775846559169777,0.09561151739332431,-0.0352175592790202,0.03212316437050901,0.06390893118793724,0.47208413013616146,1.1461412591622375,-0.036932689747398266,1.7741594921643449,10.346838289167671,0.07641468176241488,0.04145154126022341,0.030270168256897042,0.5390720616535329,0.12056468886421114,-0.45802347550828176,-0.5612878809702069,2.6159579485379107,10.10554704450666,-0.00029987137842525993,-0.15503402553842635,0.050972925249655576,0.3277479177887256,-0.05798253734089999,-0.664680788714151
-5.9183673219692805,2.0955891937985704,8.306386160581376,0.10981426952886315,0.4299441524293269,0.07772536536208666,0.04501976423712478,-0.21335824724909255,-0.6483078361356036,-0.10070789281199138,2.6143347988301158,10.028414436854625,0.08789375428589852,0.2254252338365981,-0.2690082963409217,-0.8834512288022977,0.1703630964190221,-0.2609725462577113,-0.45167883053573094,1.7238542258754952,10.003390376731783,0.09905286682001872,-0.12550740049715978,0.06824413314110724,0.059635595149583574,0.47360862890316535,1.1295138735104666,0.2446162356308198,2.701148903047586,10.305028971967893,0.08919379232390055,0.01798497017900155,0.07625120895789995,0.5269040298668498,0.11819100108325967,-0.46423095122364555,-0.9254394468892297,2.870305881766061,9.213391796665627,0.027715546213255577,-0.01586946801056155,0.15480714394097791,0.3175804872771666,-0.06301692663253207,-0.670532040823992
-6.012236305094137,3.28173998957076,9.171430674999627,0.2588271773993337,0.30716566873675416,0.02069632776596999,0.04622602980841847,-0.21848499115509515,-0.6486039328998161,0.18919895015926574,1.6982336689424078,9.98728001607465,0.13822890330675963,0.40680038797258666,-0.27001674375853707,-0.8844936270517909,0.1602079982453018,-0.27406056306590487,-0.22142101853261245,2.0184971091066535,10.142109145115038,0.20902630709235903,-0.20568991773540607,0.1619757521338694,0.07291274320791374,0.47897783146823186,1.1183922791439893,0.22245698647997098,2.5432934254087134,10.482361496481795,0.20954531306678628,0.04731208313559163,0.1853277744406202,0.5307984541757664,0.11865852171506208,-0.46249010523362866,-0.7029202598852479,2.878450637114363,9.892589403423342,0.15946100808818084,0.08904103792446766,0.13259951930845995,0.32801221231890376,-0.06308834482392336,-0.6666859700893939
-5.98874457668559,2.433076685409815,8.642016527660319,0.41007517224383055,-0.000996745851005577,0.06265335822524735,0.05719402880465758,-0.22880296009596762,-0.6273738698769777,-0.1203112791998413,2.621568925907127,10.099261739587773,0.144163743684916,0.609012172463155,-0.24323353377866766,-0.8651846331259591,0.15477272502014933,-0.27117062387275104,-0.21269618446179828,1.5631925990436502,10.094607960827432,0.16490388426246905,-0.27204635768237345,0.20341080044064602,0.07612742810960656,0.47264496081317203,1.1103395045135211,0.2308912900830995,1.5933758453555307,10.80921063619251,0.1694109722201209,0.06902238760170955,0.21413299365159214,0.5187432985990207,0.11182262851869304,-0.45333440442875916,-0.37119320400738376,2.263750844723059,10.647750772305312,0.12957060947127866,0.11627170369260785,0.16876990468581715,0.3207227263066745,-0.06929244000164712,-0.6558947695675216
-5.072545055723598,3.2865741136580815,6.871478690535223,0.5573878939398309,-0.028052990872257842,0.06440143770476554,0.06137992305342626,-0.24214835140796048,-0.6350671869813164,-0.7697731497892591,2.1976090605901044,9.892695629947623,0.23457335554610906,0.6672354322623563,-0.21935015036125532,-0.8534368072316659,0.145554378370343,-0.2975997365480072,-0.3908785325862538,2.4317065418634356,9.723144561002515,0.28272449481657763,-0.33283599598191965,0.12800328533062919,0.08797560922222714,0.47022936710910246,1.0911289895443852,-0.31687207889961166,0.7342040497412057,10.421554129265866,0.2861195292270243,0.01812342828983396,0.13335880819401916,0.515526770422391,0.10571769718429953,-0.4504552474529608,-0.29150344488045427,1.5872138082337026,10.904756829343839,0.25567529360226193,0.11072802170637207,0.35799027143120854,0.3237802262857904,-0.07863483755525287,-0.6508159472800136
-4.54302192366587,2.8319217307166022,7.158117456160896,0.40505324452601965,0.06609051763700877,-0.09757781448370717,0.06061530910934809,-0.2409682482103631,-0.6316419700597854,-1.6690760942339489,3.1877698796267064,9.0838151190816,0.3099155437933376,0.4934746998662758,-0.008697169204337187,-0.8512087803340935,0.14939498584105385,-0.305679106845228,-0.7351738940008291,2.3642614606575347,9.542952673106484,0.5193034700941869,-0.3039579940729993,-1.566059670094584e-05,0.08673190865280857,0.4825171540650446,1.0645439755963164,-0.7716423703530695,0.504370295880201,9.968736627490046,0.5198600897421392,-0.07630880383630059,-0.022126035712889784,0.506751280329577,0.1091661515526441,-0.4507514181813737,-0.6654465397314107,1.595946900933799,10.487154091275492,0.5010515598577556,0.0888957645466788,0.6301997357336572,0.3193922553662427,-0.08568523877782477,-0.6524355999619057
-4.08030351327318,3.3714933862231415,6.392146947625746,0.0972345601130235,0.33912950923522167,-0.32808015944202484,0.07268189232013104,-0.25138805432402833,-0.6218779647253504,-1.7428908163998327,3.7404495768717356,9.457600217750228,0.546349265484159,0.16300858978013216,0.2819785796240781,-0.8335605230652854,0.14629617599579917,-0.3116167468576329,-0.4473556768225572,3.6852982432608274,10.432498487947663,0.7692884930660301,-0.13622957750878592,-0.18428501512053055,0.08529454209143102,0.4972649450946933,1.031616526513309,-0.5814064968841758,1.5011675076260984,9.844824970447087,0.7683250206053069,-0.12931602729114436,-0.24002680134203921,0.5052303158536581,0.10182824101274833,-0.44664458412440483,-0.7986475167213846,2.513618764164719,9.43266933843304,0.7567098681098039,0.08160077618921158,1.014080389181529,0.32286831839248037,-0.10652760084935628,-0.6452789961502637
-4.345492414370822,4.2077587898052995,6.501569096115865,-0.30461954357106985,0.5882912595809954,-0.4636150622231324,0.07955082945775863,-0.24432026309990817,-0.6226905106080983,-0.6902501990147513,3.695285621383055,8.780181664508754,0.836288474173248,-0.14778489342660506,0.48574237303931755,-0.8301584106727193,0.15189967286010791,-0.3153110190674233,0.09045732174223707,3.3839966348567314,9.838197373982824,1.1591045468215169,-0.07160363395343018,-0.27868145112358766,0.07340765624589198,0.5213278650104243,0.9952238310370979,0.12557546668609942,3.4400406566956705,10.472146979821348,1.157320549601504,-0.14436003776385486,-0.32950374806501287,0.5005044582508016,0.09862758745659962,-0.4366841405232877,-1.1153255361671086,2.8429672300921194,11.051846282157289,1.123711624718494,0.13493514254755654,1.087281784224859,0.32009743418601655,-0.13085334679012917,-0.6307014719043796
-5.857787984210137,5.4685788444743455,6.227707236891677,-0.22216184271153724,0.7848498712900154,-0.1025654466770381,0.10428482956120258,-0.2379942760834771,-0.6274717908917441,-0.6397749391571519,5.231419281725517,8.585855984573811,0.7902493913608093,-0.2366423477549516,0.23183971871078318,-0.8083416221802745,0.1550900298230723,-0.33007159250902074,0.08841088702710005,3.443041485609714,9.191415881459642,1.1240791160412038,-0.1510629707865107,-0.24159395026817088,0.057495208551710975,0.5430133380643388,0.9402401488140246,0.2553712810203136,4.235100716897362,10.19076284531764,1.1301763821540847,-0.2097763107359042,-0.26591133526259747,0.48366132582012067,0.0960044065450121,-0.438289241400999,-1.1048666045337416,2.9359012530929784,11.377683125858187,1.1204884842645733,0.03671743806042893,0.8863652777031362,0.30684914531645613,-0.1505962735496386,-0.6304202460212732
-6.418150147173071,4.406984454613676,6.680349678234567,0.19275571039732817,0.9269898079873716,0.5299806146622318,0.11273072456698326,-0.24397665169389626,-0.6201317881255872,-0.9674951632008675,3.416402807290024,9.299256191611551,0.7719702994523685,-0.2518932139145659,-0.2706237045016774,-0.8041108483773032,0.14897369322055734,-0.3343703750800317,-0.02965127517784512,2.562941807964281,9.599563391431097,0.6684353047229712,-0.20580862629600297,-0.1548780732546112,0.0570198560262181,0.547266617657545,0.9055800781032122,0.1428278198375772,3.7233919962061472,9.8394925927676,0.6643514271871461,-0.26146261748257527,-0.153600891242735,0.47890978219567437,0.09205704804533814,-0.4251580978841519,-0.9847738586349104,3.722699801374452,11.092880595950806,0.6819529657489218,-0.13729054990106923,0.727271131541815,0.301350067204166,-0.1720176634119671,-0.6129281309324379
-6.002412820133118,1.705610144701049,8.155598928756579,0.267678018974279,0.8929792091433679,0.549871077622465,0.12241496517454668,-0.24605045486334193,-0.613216937854669,-1.0765244702800014,-2.2214490460493903,10.30104157732307,0.497488878788617,-0.23955133379490678,-0.7920880102758316,-0.7998181032968396,0.12610719910614804,-0.32946168802646625,-0.12493089809610855,-1.7781328497754656,10.229690146747275,-0.5258807336134788,-0.27941552337645303,0.13281730238343242,0.057154928945352276,0.5312258623517259,0.8806318457504912,0.046687787447913964,3.786720331828953,10.095281393310858,-0.5065321011801169,-0.24320807492132016,0.12449842500257322,0.4643726354369246,0.09704285453784317,-0.4376991261009236,-1.438073571405127,4.939473677070762,11.364546790556284,-0.43792686059352215,-0.31665176304488996,0.6284802846034748,0.2921039915916184,-0.16133752300669904,-0.6268922717112618
-6.397852362425447,2.101508220791506,7.749498025526223,-0.2750229672031113,0.5171275797894044,0.03485561574480532,0.13614177266399152,-0.24433071519427596,-0.6176870427324501,-0.6975137410089736,1.4374639067158719,11.224513301341212,0.5287314324233761,-0.24307275226234387,-0.6823968853278377,-0.7917222447143181,0.09969773330537597,-0.33938153499754736,-0.025439117714546697,5.294509649444759,12.220137520196621,-1.9399398360081757,-0.1744791797171846,0.29563237162189987,0.038646050386220036,0.46778281803503896,0.8851999395886465,0.3498882974490727,2.930080456344325,11.234583266401886,-1.930357262329228,-0.1754748874871239,0.418548272937769,0.43964687964540883,0.11292568611634923,-0.4219498420668115,0.004866143614875917,4.378628310575919,10.245903123419934,-1.8227251793868866,-0.4786636620650193,0.5648652973130379,0.26717909234810927,-0.12886903526480784,-0.6203798474732704
-6.2957537640446155,1.1837844806338018,7.377871442773288,-0.5753887690444874,0.29209520938435884,-0.37823105290969555,0.15354797576024046,-0.23506577540756218,-0.6212887236623357,-1.1820900385037523,3.9475287119763562,10.455085532096497,1.2268956151956656,-0.3068054833196515,-0.06446690805866691,-0.7722354179590103,0.07566357031171891,-0.3406932293990537,-0.4209330777213189,5.195648520039777,11.493012411484969,-3.6864441283451876,-0.19866593433569105,-0.08234760825192466,0.03757352551990991,0.36799787208284884,0.8621976534255357,-0.4454651274313393,0.2438766443601568,11.25196213652411,-3.690892391641538,0.004670111481033516,-0.018229344265826324,0.430930819216041,0.1410191178435603,-0.4192099686427029,-0.1080098780669116,2.076537132967952,11.335932347259762,-3.6616804996732255,-0.554289679454607,1.092373976659985,0.25874345856950337,-0.07598209064240927,-0.6316658068148856
-7.581291951643152,2.0451316035760496,8.069538549519002,-0.5960667283607023,0.12157829107571769,-0.638727667263973,0.15553290526994673,-0.21315107889199122,-0.6170827867308162,-0.5219621180173453,6.006419979473761,7.963876166075804,1.3746735034442226,-0.11839811509271178,0.48232248706947134,-0.7622373693778808,0.0769656061755014,-0.3403863024064362,-0.6779487372302055,1.6580466170118227,10.411284707695232,-3.868563750812057,-0.2637966916648518,-0.3530140548910585,0.025563596625378052,0.27728603518322603,0.8354819518205895,-0.2008683809867829,1.1254674338352348,12.998240209547834,-3.8282984324383267,-0.10032585621434577,-0.2942955753576825,0.41435751034986124,0.1705752215621438,-0.4099305649871575,-0.866184388236428,0.6175424314082919,11.692948619101893,-3.781504202295642,-0.5424035504602556,1.2963356703487368,0.24549512282843897,-0.019292702994545108,-0.6324943918752276
-6.802910516364321,4.131208142052505,5.52951415790337,0.0073640949354207424,0.02297589175463889,-0.20520769625884216,0.16288231615324092,-0.21946848111594378,-0.6214784556002052,-0.9618662991621045,4.707068222636944,8.877671886047414,1.1705640807088655,0.041642390472992785,0.23466378855695602,-0.7416830913796372,0.05909720300552874,-0.3600661297462843,0.012790421796865722,-0.4871670203116936,10.343820394367492,-3.0908208404507747,-0.6397425060211374,-0.3350054407647164,0.016699133743480536,0.2171392107564504,0.7895885238358541,-0.05437786068888466,0.005873381207250408,12.79972000993858,-3.0271600647499954,-0.22650742174191724,-0.30496725613848014,0.3852919899888567,0.20307453232339165,-0.3941426538780883,-0.514897530513873,-1.8162477287550494,12.773705129533592,-2.9759190275146157,-0.43813191811078145,1.0601418600145136,0.22896427095656674,0.03685163959851067,-0.627281596734058
-5.280534985540612,3.4041437788459863,4.681145132612294,0.4125493958904961,0.1641110756075921,0.1663397912265909,0.16517992713661406,-0.22888641560599268,-0.6110737647970036,-1.812708896974211,3.0169599291624793,10.106648126889027,1.5444712602206867,-0.34823389777628155,-0.10792431018478871,-0.7320192907488395,0.03361488657113804,-0.35240413597796433,0.39328365247124486,-3.970814779188847,10.375640813584688,-1.37284360410694,-0.6047534910546128,-0.17783701310167577,-8.606732736530023e-05,0.1775561213295793,0.7319801240886332,-0.16209916202977945,-0.9741608929992425,10.593422838660654,-1.3597073435752485,-0.38888400040856663,-0.18512637157296372,0.3533237001360327,0.20952439361237976,-0.3933830439527706,-0.6361869756176789,-2.2155395552984167,11.075501122117208,-1.3316957571547554,-0.42350604192112434,0.7327023164132386,0.2127684536096044,0.05585459547034756,-0.6195426849502957
-5.545566295237674,3.592581908976501,6.369488457883305,0.19680903518756632,0.2494148971512525,0.10156661897281692,0.1652049001630158,-0.2269119053539318,-0.6127576815444881,-0.7060245264291625,3.649236953730449,10.032369926966139,2.1630607831733397,-0.9060608166791427,-0.22659095710611196,-0.7294145941940262,0.008290652923689572,-0.3477269431204072,0.9070372096956241,-2.8478323877438902,10.970811043797742,0.07669983897120028,-0.3315189178627057,0.1250695772637478,-0.01083578523796946,0.17022073299446608,0.6613245517619191,0.7553921997385086,0.0019005289919965737,10.459974525879966,0.06199517549026315,-0.45631990135854195,0.15679534817417903,0.3259919343999476,0.21327690916611525,-0.39333168475947744,0.28175134490855935,-0.49684675878311324,10.189027705170103,0.06986808073076142,-0.4647289937297218,0.37601964971522434,0.20227788183027884,0.06734261997462905,-0.6181355240739757
-7.300040050323571,3.033059171001533,8.148908044199805,0.10031233991518293,0.21305994350747479,0.08766523029874748,0.1824459784034255,-0.2317011224372046,-0.6055519270498249,-0.018968840127859085,5.312753378493104,8.435933287636248,2.3323235113986254,-0.9429301855192767,-0.20027359523104565,-0.7008748879733377,-0.034781183604795894,-0.33168116118557417,0.19904460624635395,-0.6874146190511486,10.982177358187219,0.4461670805279721,-0.44094046252473745,0.1629945944582722,-0.028169066646576493,0.1563214366104043,0.5871841658400881,0.2970125102249609,-0.9381887066958486,11.748370032338794,0.5146440817645218,-0.38644033809044137,0.3412662544309026,0.289603014873898,0.20437543254559018,-0.3958453030083239,0.16135047961195711,-0.5015457000567235,10.46034857773935,0.5083635071065405,-0.3704386276946954,0.2473700203278668,0.17809532942905487,0.06301749235652832,-0.6183659637606612
-8.230478850189671,1.8822359242411963,8.656244188652105,0.11367845256496735,0.0026007037769317023,-0.00131603164822117,0.1819841933209958,-0.22315824596644096,-0.6052044775672829,0.3670404664218084,8.102299005534604,10.194709772815841,2.2460532245308027,-0.7123287626776237,-0.0017750926594929523,-0.6881087440308736,-0.05579344161076924,-0.3191582998379949,1.154652910074212,0.2796501057587843,12.12580840780223,0.16814167539638902,-0.49506891072919196,0.06600380336243261,-0.03403103942704051,0.1475128975908805,0.5153379631745149,0.9812242493411087,-2.7059142744264983,11.460509261854156,0.17990518143067072,-0.3353290611862432,0.16525439259623395,0.26595298457827143,0.20374178345614544,-0.400422937752096,1.1908807517318811,-1.3300503471096976,11.385729668012054,0.1443672218408954,-0.33994375062797305,0.4967356834302607,0.17294087642510075,0.06837629309757273,-0.6159561671203178
-8.45514524586375,2.3391496601685824,8.7132538580486,0.40621054179953314,-0.406484774111019,-0.11381243312065498,0.1828110498635663,-0.24254609775041602,-0.5976284759529337,1.0754465728556077,8.150445083080026,8.753812720435521,2.5652329736794757,-0.43765861820574,0.42338730499484417,-0.6676608560218912,-0.08632047718360614,-0.31160576946024277,1.4224057939025587,1.3328635808037017,12.645510347375687,-0.007329557294171359,-0.418294576792807,-0.19339815841056485,-0.05282991117087644,0.13337241275481068,0.44118648221317674,1.2746131011705615,-1.412675300024697,12.49484318019744,0.003390461794553562,-0.2757195693448694,-0.23236622877066163,0.22760671680433145,0.20361673654840293,-0.39851942623908704,1.1708640717259833,-2.2252204089199132,11.872258052015738,-0.05231397663151619,-0.2843284517660471,0.8193953709494091,0.16130502371895047,0.07610563808454744,-0.6055757922777071
-8.579580475826349,2.904116110506591,8.91903427593287,0.6895418640735153,-0.750268918357566,-0.09517431379100892,0.1715718433255777,-0.2493266356517245,-0.5990556193113087,0.553295316964983,6.827591089119874,8.303713548493922,3.4756561052784125,-0.10166929576180693,0.4878547767247891,-0.6452653528029624,-0.11296086183236223,-0.30749684425560897,1.1728632246244164,-1.4234908645987419,10.645029380032522,0.5344802901765714,-0.5109187603138738,-0.20345738739623698,-0.07489963674586844,0.12661808465116023,0.34896666129103016,0.9571607398000609,0.15364960644238096,11.3078765991876,0.5446444850632046,-0.26897918616965166,-0.22156971983722965,0.18555219233220432,0.20020496301877552,-0.4240035060106973,0.66543815070832,-0.8466205220632351,11.610071890088376,0.5086170851096152,-0.27394384377391817,0.6401156667751303,0.13904463901501707,0.0743457721857509,-0.6174645075510721
-7.857311203174785,3.832358311067249,8.075802253860838,0.9800073084667815,-1.0790849721614815,-0.004603603474465057,0.1622487760712201,-0.2690426018212124,-0.601359358223237,-0.07542887418138436,8.64970515876274,7.2852881545617665,4.610865573982677,-0.10748544101234361,0.3323260962680767,-0.6205829269144668,-0.15612902776500656,-0.29782805605487767,1.2749156974987608,-0.8333976518229742,11.003900886240805,1.3166321576392281,-0.4527914510550946,-0.08567938172449624,-0.07854209556817292,0.1241539046621998,0.27642155714395605,0.915763584251167,0.20681334544367377,10.018888282687849,1.3232119008648568,-0.24653072820480615,-0.047212624343706135,0.16185215876054457,0.18955097192103096,-0.42642773050347466,0.7368796088292038,0.0018650853832517938,9.400023507012854,1.27675938043981,-0.28701397336444084,0.4720586861752557,0.1337436643766725,0.060847462784180746,-0.6098935123600084
-6.622165801907377,4.260186853131548,6.99984351922595,1.0053852501842733,-1.076463400035579,0.18192552186196137,0.15171475239055515,-0.2793068828768311,-0.5786507674147686,0.45039248957741584,11.891509766519171,7.9716245164208805,3.945035888160983,-0.1286402590659139,0.2913427194342496,-0.5920522886087114,-0.1831570675615877,-0.26510089437500395,1.3434060277271853,0.362321533416128,10.33526420776935,1.4571395870099704,-0.2841362131134469,-0.014813142474257352,-0.08553481761019209,0.11879974949404938,0.19310200151096904,0.9992950331533533,0.887006365305117,9.744826645821117,1.4335133685676678,-0.16853888746864104,0.012929503571677717,0.1360848113973501,0.18092792617658898,-0.444972599172563,0.8886852379956861,0.9254840225132414,9.171195155180664,1.3782418249552382,-0.23282924398389154,0.4653311218218109,0.1269918283989255,0.050440442719162516,-0.6164770257302318
-5.909619592964001,3.846183959519381,7.915922323461796,0.927677083738641,-1.0100743402016776,0.1866952304514396,0.14217003684077795,-0.30045589189180233,-0.5834174107576782,0.9990441776585207,12.741220264576972,6.963917001941054,0.8118857525394115,-0.12293209584998432,0.21832683994058935,-0.5600426776936751,-0.20574218851175644,-0.2773188244261309,2.4107427361088067,1.1183624610942031,11.139212652823984,0.5962519907441396,-0.18779184966714935,0.0487790534680729,-0.1077637218753088,0.10466320047032741,0.12063625048421033,1.9196122101536397,1.4423683581444715,10.598730431526349,0.6089160906186807,-0.13913191571758204,0.08480618939923172,0.09390995693824332,0.16818866202174657,-0.45877844580166577,1.8753709706325625,1.3322143239416724,10.404172040493915,0.6027942704174398,-0.18316780560832124,0.4137339042047904,0.10165415160723519,0.04031054013442111,-0.621430998017547
-6.166874903568175,5.577958610198156,9.396202430589618,0.8326604087495549,-1.1945547216755479,0.21622974016928884,0.12392744525038407,-0.3093541886463324,-0.5700527274118442,1.0468668497936688,12.858685715370314,5.489513551414783,-0.9871753017331276,-0.32390775371933545,0.1649462866954057,-0.5287489988319887,-0.21111482141115132,-0.27726922573684115,1.993475517569512,1.8547035116463466,10.627662384798203,-0.2274207224830176,0.0037473608421606987,0.0073368590705363375,-0.10837349458915904,0.09237746646172931,0.06444169289090403,1.6152992674136584,0.26156621310115713,10.86339484426074,-0.23356638145358757,-0.17614501145619044,-0.012583268366198056,0.07349260995492031,0.1712326933006088,-0.46941972315618946,1.623715508013147,0.499042670150444,10.566198733102256,-0.2499330895108247,-0.167873814495918,0.49269898323739636,0.09792084590817789,0.04856245793761865,-0.616033520168898
-5.289307523356649,6.106596666570437,8.401422266302745,1.139079184653673,-1.2596319020574798,0.5611699423550581,0.09731925263711297,-0.33240382272757224,-0.5552483731342672,1.5949689902487318,8.914869090203943,6.5764070846699605,-2.876876670434159,-0.13234685258640902,0.011406388259893659,-0.5027246248090127,-0.20821158780420523,-0.2993182934798492,2.006039942240378,0.7556012463577593,9.882634357035366,-0.4934619685923277,-0.09059722229798167,-0.0015078112861384406,-0.11871215596334024,0.07964468527171165,0.0028066689340891307,1.8073732737509987,1.5278224471936228,10.22930571328191,-0.5382011134005699,-0.14755804710998957,-0.12115080293367023,0.04773130509618509,0.17284667778414545,-0.4842591761131623,1.7331654338332434,0.7055202109283024,9.339667988092046,-0.5618452662620276,-0.10076880171324402,0.5226463975291789,0.08575667422966643,0.06032208341246256,-0.616606311638023
-4.490506643898356,5.083563856462952,9.499413512284809,0.7358933625083284,-1.3301389826132963,0.34158094180977094,0.0816379660432755,-0.330714483752263,-0.5495358805444747,1.0805387588237962,6.9325684064552835,7.176896923826033,-1.956576640881076,-0.08758983026520596,-0.0135860792960088,-0.4675258901383374,-0.19495207804594047,-0.3184761538654422,2.371493367286713,-0.42802902935737075,10.477046050760705,-0.7126273135265552,-0.013827123493790896,0.07085200871402353,-0.1319611999145912,0.08790022488544909,-0.053906067739993443,2.07321184396662,0.759092128128114,9.479562096600743,-0.7217589745617329,-0.10637077634218536,0.020910960235167128,0.017929155646739157,0.1933006542500059,-0.5051513463194123,1.9636482633278116,0.029757101162249916,9.14028586276108,-0.7446498357385691,-0.040347296436309826,0.3332380396260345,0.07101915468744031,0.08629456507713577,-0.6212193502158714
-4.928167056576102,6.433335825566297,9.65744267987619,0.21642367781440075,-1.1938869829166971,0.047782310360151535,0.07565395894267365,-0.3422701435995232,-0.5416887702792645,0.4547026812611596,8.433870293356495,7.959086359618842,-0.8358753357432183,-0.2321134562873303,0.10170836333120235,-0.43168869341551935,-0.2111196528563383,-0.3268249002264376,1.6209833840349803,-0.3288297012033794,10.965837960459792,-0.2865996169802141,0.181669034124796,0.14435240245301853,-0.13184041431779459,0.07975860328333859,-0.10837338999405377,1.2851398675713885,0.4656811807268616,10.001054550707812,-0.22104634627495384,-0.05468676618363522,0.11674611882572206,-0.0017494717982172083,0.19220289462847034,-0.518489976372605,1.24133822869804,0.3131833805139507,9.444426772049834,-0.23838477859051957,-0.037929654420574256,0.22288688436263984,0.0634897663516801,0.09365119932949247,-0.6222481226719425
-5.636920788829572,5.615513946453169,10.267909652307665,-0.3769648651343192,-1.0401719044251938,0.01428486670327133,0.0611262885460024,-0.3359976022213218,-0.5510438097502895,0.6459933314318764,7.872152833363697,6.810680016164793,-0.3892856090329803,-0.25680561528028445,0.06620897037665051,-0.41069020806412715,-0.22264432929534217,-0.3472990089963851,1.0246811908438416,0.9315394815291116,10.82679736270982,-0.050671577443835866,0.2578652128245518,0.24410257060363366,-0.13250613062481723,0.08305786255653033,-0.15109481076919679,1.0768288706530984,2.1253831748174306,10.67803120004418,-0.07511849774676965,0.03438159389705712,0.23129643430966765,-0.02120495285778046,0.19742796081015793,-0.5261843674555925,1.1411499799340694,1.2269694419650448,9.35374628208476,-0.09524766686568716,0.04611240634885087,0.09730426715905907,0.055622995922010095,0.10143817091565242,-0.6179049286257126
-5.2926511901454205,4.963254796557753,10.433755682834667,-0.6929263104111346,-1.1129441148572996,0.012332761836406116,0.035040062720650106,-0.3200600192002832,-0.5494130919217771,1.2474825190893237,8.772423142334564,6.822206429556752,-0.1462456168499649,0.10709067700648367,-0.06088565862718618,-0.3983992186903501,-0.2284609799670071,-0.35227138068175984,1.266118678196366,1.984275725992992,10.141923893269674,-0.1471419128726401,0.09965013757392882,0.2851912322962918,-0.1426755757690401,0.08492637515894613,-0.19681687816682497,1.2954100747021466,1.9311846939444102,10.314538484619126,-0.14523669281843768,0.13072821443277385,0.30204659841716724,-0.044224968768864614,0.20393902174263656,-0.5461089121677556,1.3933465016445812,1.3980075775902572,9.303153973183397,-0.15136925825014128,0.16171735815210575,-0.026573402305794382,0.04159748265596021,0.11082376469740243,-0.6241540143978743
-4.084779905510585,3.962315114164258,9.375751416435614,-0.7496365959924282,-1.2552323266400012,-0.15288127727035133,0.023964930865355658,-0.30379132560330413,-0.5586051545866775,0.9766653470161916,9.955941688253443,7.5735576541151355,-0.727165067254584,0.3951804795366046,0.05150790666349791,-0.3693169333693684,-0.23488672051806267,-0.3815272039120082,1.6492620904720807,2.3294654316661805,10.545560329069241,-0.711217211498699,0.18392449951562995,0.24488385955579023,-0.1435471783783104,0.10165658059135654,-0.23998887312977357,1.3191986185816003,2.018760713772399,9.182475998919603,-0.7695851327520709,0.1866962701794387,0.2947461788828878,-0.05625709512926558,0.2262535486194811,-0.5592879581313269,1.3584586345094327,1.5032467922923451,8.035464552779231,-0.7615097811013815,0.2613168833076447,-0.0951163831908312,0.04001532774706744,0.1364971843045848,-0.6270719154444847
-2.994937410637481,4.338250932697302,8.01392741580313,-0.60952860052712,-1.228411880808733,-0.23985354492565167,0.020073671124699183,-0.2979253343996967,-0.5580835389907197,0.7192184737957558,7.83908637352475,7.0149751983828486,-1.151141893112308,0.3508645477311082,0.2274573345250842,-0.3369246784711138,-0.2372774175449808,-0.4007876502030987,1.4217383557141234,0.731989293858927,11.22352758543802,-1.6794218922934387,0.32737510995171387,0.27312819570785557,-0.13283583086028652,0.10464340363746545,-0.26895809188760955,1.462887987458328,1.0345356026579435,9.723388714976961,-1.6057699502501481,0.3248691872148255,0.2817409471802347,-0.05640039543808292,0.23752006098460662,-0.5675416967477339,1.429715442232984,1.1825369169670974,7.31424611188361,-1.5335367370760087,0.4356052989054415,-0.08915989966778351,0.046565199809747645,0.1527797373796486,-0.6218933559613609
-2.4654544685434288,4.820821946812655,7.718907362387935,-0.5855165623336379,-1.022350384692912,-0.1989495400202113,0.013298038105859349,-0.2793510567919665,-0.5576767644278777,1.0841294067148093,7.178405525175487,6.125957961032726,-0.726720616507121,0.12538155956249525,0.23709098348985408,-0.3151287398060012,-0.23164373255567858,-0.4153286343908338,1.528136212681571,-1.2655085594447337,10.439971048535927,-1.926648796102879,0.2731155388773174,0.343797415518323,-0.1279521394267895,0.13180155070446054,-0.2935035128835887,1.6381273728194088,-0.5225077624732024,9.881400034851035,-1.9189299957274881,0.5357969405541806,0.3614552831860153,-0.061909989383664876,0.26562184349845236,-0.5691714535085173,1.4596161130841712,-0.29343163129772404,7.486497291480977,-1.8649543101908999,0.6545343331418614,-0.08249326086368383,0.05232228522517634,0.18754809182555415,-0.6101741323674816
-2.5985107553792135,4.907154583251764,7.964021781606688,-0.6639907688795211,-0.8747318520543401,0.04368026710502404,-0.0020654791350986626,-0.27052433924170294,-0.5565099408445301,1.3624699701837126,7.054128026292356,6.889865455601385,-0.7155790155129855,0.004992980902164554,0.04105997790034832,-0.3054622830509844,-0.23587263567833106,-0.4301052842879725,1.8205852144402648,-2.4223807661308787,10.459857519124563,-1.5298086245807658,0.09413345437626074,0.3444600435863304,-0.1330884024353033,0.14093471447507983,-0.3232993695896212,1.8395912402774472,-3.0562697128545873,9.473333246064726,-1.504879230129298,0.748593683414228,0.4400796063290943,-0.06642589911918223,0.28105823870605817,-0.5784176284611808,1.5608501802296881,-1.4257507588387273,7.096916808208318,-1.4639177604152802,0.8407407371871063,0.056836851511947305,0.05705063224107163,0.20343205130558603,-0.612601758107578
-2.3376244115716154,3.2863840264682214,8.345758501610504,-0.4631357590057917,-0.8285333410062954,0.2836756836020225,-0.010047927441681773,-0.2524151647333999,-0.557586256625589,0.9912950067941043,7.951442582710297,6.748900374254274,-0.6578135999193252,-0.19379988170044674,0.10381736848943357,-0.28952812685183804,-0.22834981291814638,-0.4464197269060962,1.2829174573963407,-2.204701810512387,10.081011905289326,-0.7410629336604666,0.0593969856619517,0.2941419308443064,-0.12820098150543002,0.17126642671641373,-0.34734755806948703,0.9051176244346453,-4.050345968937983,8.342761258994507,-0.7549881693004418,1.0119727783814307,0.27389733812568395,-0.06358043414902216,0.30867585414151105,-0.5873099119003786,0.5016392556598777,-2.0187241493148442,5.167858063647846,-0.7378416003207886,1.062972551313316,0.5425970690664647,0.07436847361780763,0.23286066017425855,-0.6065988231500008
-2.0877890723145325,3.2319515685829,9.228410305272547,-0.19764704943227746,-0.7928915757354792,0.07634273912051892,-0.025440576305904128,-0.25067403711688496,-0.5560205751235704,1.5497368201654023,8.320698863538768,7.033309444533867,-0.4056411557862512,-0.13053692985901283,0.3950213118989625,-0.28625342022804046,-0.2299099633523441,-0.45809854363343333,1.7028894531447776,-1.888161353986953,11.055912377717021,0.2806316263778826,0.12583304937193948,0.1255427915025931,-0.13362138835542386,0.17355508406303843,-0.3739911612817082,0.9103028134615714,-3.2330280209565982,8.019930480258568,0.2574257705804348,1.378985249165092,0.16297898263321778,-0.060074874608052296,0.3087139714882939,-0.5987574006805692,0.1299509468546588,-1.9214033328886884,4.3225211551571165,0.3162318145144904,1.3477521408317954,0.8900505674747841,0.08878261443218567,0.22916989582602504,-0.6076055366688775
-2.1000643581035003,4.452444934811122,8.89488257316515,-0.12285492633970772,-0.8551985235066311,-0.04860318935155597,-0.03220859852535577,-0.2430331632827951,-0.5599030071305124,1.8091164830046866,7.85366503356273,6.033558222985079,-0.6663790541088883,-0.01674508412657207,0.6044541697701632,-0.2740131122215587,-0.21971498612117293,-0.47300472064708643,1.4313060983208596,-0.8432927628313328,10.583115231721983,0.9697381096297707,0.06079027750979532,-0.0430993603892281,-0.1313170234806364,0.16383818227692887,-0.3925585029385783,0.230528459610769,-1.8995971278820916,9.65726788113453,0.9531058897647983,1.7597255825985236,0.049809538724409415,-0.042735821091039884,0.2974503170051257,-0.604289780170263,-0.8339117963997673,-0.4108183453431352,6.4694368203005,1.0844901214166374,1.6441877426862819,1.148740535125281,0.12249785961330818,0.2043217186467281,-0.5989824210345455
-2.028274460328493,4.862482407575204,8.036552768889022,-0.1676181332989699,-0.8186655750712282,0.08927467950468379,-0.047288582792926075,-0.23829500271387888,-0.5636686803655397,1.8086650364554768,7.686574164583398,5.4654509214391975,-0.9952768665430951,0.018568616821884786,0.5284914596334365,-0.2702446061428217,-0.20944413172676946,-0.4977422048349234,1.8410552788820111,-0.8748130894705234,8.947564488711535,1.0878933808189928,-0.11321471161989213,-0.14024904072415617,-0.13574854768996297,0.15905708425298082,-0.4236106967558846,-0.032685168202306936,-0.2399700251715935,8.555498136986397,1.0702219273422995,1.9786348495191486,0.04162490920194662,-0.027966189613381258,0.28845379768148627,-0.6239915450930699,-1.274222240290107,0.8764548727198433,7.145982761414535,1.2503568272319465,1.8367969345954764,1.262416186889697,0.15282550139781678,0.1833106379185172,-0.6052729048333588
-1.9305489252420718,5.810459881620294,8.310727721589231,-0.09406574022510894,-0.6328305754353344,0.40974282713317367,-0.052410132278687425,-0.23365181309557748,-0.5626877506874303,1.2388201465532538,4.389473572994065,8.456690160024872,-2.327007263010084,-0.1943322528666711,0.018296073897998463,-0.26395642767739624,-0.1839518057613469,-0.5162693548710084,1.3001017521208253,-2.4238556907912367,8.99129508884684,1.0476866724012937,-0.27159966683308195,-0.07283599211834127,-0.1380330419964507,0.1583954930235822,-0.44609047782263006,-1.1944371970731942,0.5622878772854918,8.76987088499681,1.009650135071762,2.178040713253367,0.14335345949902556,-0.0012743964130879784,0.2798819830680724,-0.6382291618875352,-2.5192509730670287,1.2972772723278214,6.333597429073979,1.2963373753530616,2.00027226114034,1.230495504307207,0.1891478914947685,0.16392031361120657,-0.6050903263511052
-2.964661996916609,4.706989124498531,10.511941396023856,-0.202727334008803,-0.6891237733856858,0.6447360572120634,-0.07204986484754408,-0.23128087398342098,-0.5518814991009533,2.0142005357184116,7.614093639945624,8.27111137633337,-2.3424632814015993,-0.2518671173163352,-0.4963174762901402,-0.2635552055093293,-0.16329872602274106,-0.5262467153477397,2.7400710343755676,-0.438181913592079,8.98077123136052,0.32206378911091893,-0.24781479250048108,0.22748450225116654,-0.14743979392536322,0.15163804108847917,-0.4647313231492957,-0.6292174596703294,0.09332482951302346,7.332534562781234,0.21110943033806745,2.2800538385472486,0.3761881356905006,0.01778873293360065,0.2737374667636008,-0.6434812400377059,-2.216785266510335,1.2510513215020564,7.00126018466052,0.557291622495825,2.2169915304324306,1.1252725022868197,0.21867597451335224,0.14563988889915755,-0.5932948282439994
