,acc_x,acc_y,acc_z,gyr_x,gyr_y,gyr_z
0,0.15446866444190474,-9.439263880718913,-0.16958195794797704,0.0007911986688353284,-0.0010761569943792955,-0.0002446401915702284
1,0.13107094669202965,-9.457202515547658,-0.1720023231835086,-3.8395517445363474e-05,-0.0010715627673820115,-0.0010569251670790832
2,0.14330525983953926,-9.487683295304413,-0.19962270728636825,-0.0008732214316209126,-0.0010708916178189664,-0.0010669515214647054
3,0.15396404493586913,-9.479777229886997,-0.17917619710090876,-0.0003687100943679172,-0.00038103729632633584,-0.00038037799760187437
4,0.1653279584670066,-9.45874170986231,-0.1635499671629792,3.117328970928668e-06,-0.0004762713927097663,-0.00046950710802102054
5,0.17711328192205764,-9.449832755982946,-0.16955259583608118,5.321876659535309e-06,-0.0010728680708279325,-0.0007969142718536605
6,0.186308908621451,-9.4747885666914,-0.19268099838087469,-2.1987174538271426e-07,-0.0009799754741671688,5.115693604958662e-05
7,0.16918087021493766,-9.489544657051379,-0.1817913245404832,-5.913755369469129e-06,0.0007393875021050764,0.0008936039234700196
8,0.18008483701528238,-9.482077464830972,-0.19564699995107254,-0.0006805364869377399,0.0010721407452483683,0.0010482907117600612
9,0.1426153160288328,-9.478347416136094,-0.20387034896476747,-0.0010438914614753166,0.00011661813283792694,0.00010160699402036994
10,0.10234218516254122,-9.480591548207897,-0.1974200701969475,-0.0010361197364483,-0.0010707606574304,-0.0010689079486734
11,0.14894524457844524,-9.479970552389942,-0.18046284566782733,-0.0009875203796555086,-0.0010707997283750388,-0.0010683242648587942
12,0.11028481503231302,-9.47752439992667,-0.19333257153088573,-0.00015269446547991466,-0.001071470877938084,-0.0010582979104731716
13,0.13177867986366204,-9.479830622190766,-0.21416242382208817,2.4744998693577033e-06,-0.00037805875158823454,-0.0003726893402316868
14,0.18611056736241333,-9.450262681396847,-0.21702485621591744,0.0004730451824527451,-0.00047760161926138536,-0.0009419803542460775
15,0.2348066507820929,-9.418894217709958,-0.2037474676632448,0.000798565199441281,-0.0010670412544970566,-0.002108054917269296
16,0.23558411972763196,-9.441038619968456,-0.19330095792904356,1.3263135802109971e-05,-0.0010150960880847858,-0.002015587953688833
17,0.19496620007789817,-9.45580217678788,-0.2441972684595482,2.1119918251210856e-06,-0.0001616416111344047,-0.0003209576788263105
18,0.1817196764345586,-9.479724005216646,-0.20773460215146825,4.484800761748362e-06,3.362984661835565e-06,-0.0006877211788310136
19,0.18392951882458908,-9.472953439616514,-0.20248693723835154,0.00047225890427616965,-0.00048103503220777973,-0.0005767809678426784
20,0.18331716923328223,-9.444638331706972,-0.23130965584159463,0.0010449581216037743,-0.0010763292624122785,-0.0002480766531015357
21,0.16001670617417857,-9.429587719510868,-0.24236881267371715,0.0009983532873218436,-0.0010189363476905845,-0.0010446584963138973
22,0.12478188430935114,-9.476800986613272,-0.19585029939498888,0.00016344676705699697,-0.00015650933810742592,-0.001057664742014998
23,0.1273211392008421,-9.466473760293756,-0.17832229772682523,2.4178256117377676e-06,1.81303716245746e-06,-0.0003707611482084858
24,0.1526278432464102,-9.468885403104217,-0.1685480248288047,4.5380526179977126e-08,-0.0004851610432235485,1.6776528554994246e-06
25,0.18792099169133492,-9.472996365636082,-0.17001022885745945,1.2601034081817365e-07,-0.0013471705498927108,4.658421263289356e-06
26,0.2196962264463408,-9.441569137852374,-0.19110452110952283,5.501687575775039e-07,-0.002099154147710782,-4.6993045849571876e-05
27,0.2294836769643484,-9.482867835814192,-0.16582777880675617,6.0021584273481026e-06,-0.0012324403834909348,-0.000898382505236428
28,0.22572019551591915,-9.45649601371103,-0.16481785270999458,7.013915831690528e-06,-0.001071599273821,-0.0010563797946095
29,0.19730608049205828,-9.446931193305439,-0.16008050793943077,3.8429651244672306e-06,-0.0005871354512256736,-0.0005787966103804376
30,0.15783997756962914,-9.461720867140386,-0.14992625775888888,0.00025982094322636075,-0.0002746098460281623,0.0005394932718894522
31,0.13597844384680363,-9.475041749531952,-0.14830579745955158,0.0010301252515937708,-0.0010306951656083032,0.0020254575585987836
32,0.19274565685125084,-9.481907340419394,-0.21498881063394815,0.001041115183392201,-0.0001606379225184801,0.0003248675011053249
33,0.13326076056860764,-9.49282370454775,-0.21312929726944027,0.00036163627238457174,-2.907336991939944e-07,4.343292851913606e-06
34,0.10309704723683419,-9.47202650034328,-0.2045627423848709,6.32060617002055e-06,-0.0004837485413134144,-0.0009605373756542571
35,0.13132447964351787,-9.442983353752794,-0.2173617362670447,1.5663489563945815e-05,-0.0007916675974131472,-0.002387614895120036
36,0.1874309314876515,-9.453714337239472,-0.2544646574874213,7.658095309386742e-05,-0.00010190445796124348,-0.003065178575211331
37,0.1536642272005257,-9.517644536563681,-0.1906207021102748,0.0009004976172467425,-0.001835197871066102,-0.001351579473996763
38,0.1447239811927494,-9.522023257021369,-0.157597500493556,0.001050182364315064,-0.001444442442527233,-0.0010425652748982106
39,0.1660686181468012,-9.486321188783009,-0.1528153671172104,0.00010057836101393916,-0.0010716744939782564,-0.001055256074958059
40,0.186514961747957,-9.450979255785406,-0.16722901694250308,-0.0007714346321087054,-0.000797226251738824,-0.0007958468323067994
41,0.16600552781267805,-9.462405656938621,-0.18677037066992616,5.8163510856668523e-05,5.999879175121662e-05,4.909845282303149e-07
42,0.15915431245007264,-9.508134837462533,-0.1901574542420149,0.0008929088189429201,0.0009210835022081338,7.537447598404622e-06
43,0.16594939517274795,-9.469981408259722,-0.17300510802614566,-0.0003262094545529166,-0.00033650260864117747,-2.7536816947419376e-06
44,0.15646843578995706,-9.455806910282636,-0.161157658808333,-0.0010430789296967968,-0.0005841979131974201,-1.0505138782416408e-05
45,0.12588917911140501,-9.46767560436067,-0.15559224155785778,-0.0005069899978754185,4.075893066941262e-07,-6.089007662987797e-06
46,0.08965922715075869,-9.466913837665023,-0.15286684452193924,0.000983369563182111,-7.905696762483129e-07,1.1810380541740374e-05
47,0.1611076159322143,-9.462465933364223,-0.21709125515737046,0.0001485436490065542,-1.1942011315038726e-07,1.7840261560965448e-06
48,0.17663676753640728,-9.478245818963021,-0.18095660175670392,6.626355099880836e-08,-0.0007084204665847018,2.4496682807907147e-06
49,0.22769421270760465,-9.484031637812022,-0.18280693529008657,3.2684166789204343e-06,-0.0010744078838063405,-0.0004820267230921366
50,0.3347051973910075,-9.475745397496318,-0.2188545687099269,-0.0005308100574591191,-0.0007914583438257146,-0.0013381338885780961
51,0.4886255360122388,-9.462730876292467,-0.2282395395096698,-0.0019514577725779942,7.46803154139413e-05,-0.0020202413963616825
52,0.6951407419421968,-9.47839925614094,-0.17574070581683446,-0.00029217321410610525,0.0009267918630506775,-0.00030554899831071106
53,1.0407708610120043,-9.480653807158719,-0.17166419386503742,-0.0007062173993507637,0.0010636591485441744,0.0027849416277702477
54,1.5187292064527336,-9.47944529082898,-0.17788976908697646,-0.0006198882359909489,0.0005400022607292316,0.008619883147266
55,2.0346948345469427,-9.485315190671447,-0.1893869840095921,0.00015799331316325378,-8.515385076147212e-05,0.017372391439797408
56,2.4767233706443528,-9.50565954842164,-0.21219924569254925,0.0007924559189061536,-7.656566405066364e-05,0.02879708434920886
57,2.9802876997958716,-9.511891432826198,-0.23866436485505393,-0.0001475973338069098,0.0007070157362734586,0.044907789864861165
58,3.5816603447531836,-9.408044796774703,-0.24363696697914286,0.000259432808239873,4.207076592716957e-05,0.06594611373910902
59,4.555942272033301,-9.416340874483893,-0.2613679074573979,0.0004435864831057412,0.0010402120488105047,0.09192347605673622
60,5.594664497589928,-9.526431977675262,-0.31579099865213345,0.0005120480784718681,0.003190847415643766,0.12326796876963919
61,6.266860850512182,-9.614052845107038,-0.4148654548871712,0.0011030805356351348,0.004463910815017894,0.16074745178195474
62,7.3454378975966215,-9.37671629670696,-0.45730415635404237,0.0016170947931990222,0.0024990423738695845,0.20998297997308016
63,8.253872291082002,-9.038086231017026,-0.4136599912767073,0.00207593246588756,0.002633028286936207,0.26764145795768535
64,9.522818916403962,-9.024858620717234,-0.3888100132156671,0.0034350953312814337,0.0006699267090835202,0.33541459505841964
65,10.698555960363533,-9.241475288792815,-0.44778945550971394,0.005158985682636903,-0.0025932180864280036,0.4131866743182482
66,10.851892048360403,-9.415913835463796,-0.566520859853527,0.006462687278095062,-0.004400923740109174,0.4997978644475106
67,8.186279899781207,-9.641954319676703,-0.025617604943313874,0.010007257113528012,-0.0022912815588957166,0.5965821397704906
68,2.7539349166109055,-9.235315685769,0.16207791389051657,0.007953952501531152,-0.0052248819232175924,0.7017656368736102
69,-1.0835886959520165,-8.873578343947775,0.13539800227295887,0.006712307394525203,-0.01167863805303256,0.8052583716279624
70,-3.113184466517654,-8.672518238404963,-0.1215791357005516,0.007057607626602236,-0.019234408645687914,0.8804625964291675
71,-4.690938079868158,-8.593897409172763,-0.5984273824117818,0.007431711037794573,-0.024801033773153725,0.8992686218782106
72,-6.723302179932549,-9.117207972427058,-0.6394406866785649,0.0042741626185804635,-0.02379965297608301,0.8712217307346362
73,-7.023188689265447,-9.259693419246128,-0.37868248898071055,0.005379576762910669,-0.01699390677549661,0.8283838398090336
74,-6.467518324687468,-8.885578919634426,0.006242298483074726,0.009037864079091506,-0.008339028117964935,0.7470010498321953
75,-4.520858414032115,-8.693376799506705,0.2999606553131,0.012686484892781942,-0.0027233425449521304,0.6573102896204441
76,-0.7497973470913358,-9.439379282956022,0.29257084313080256,0.013610675789108325,-0.0034565593494237028,0.6011032956366227
77,0.3733125998500987,-9.52211759903927,-0.015206720194575564,0.011548275857065974,0.003773100607932143,0.5331601010952075
78,2.3093800857706617,-9.143941141339061,-0.4395671944959899,0.007088900108672422,0.0007138089601670392,0.5126184195284564
79,3.506691374874182,-9.128555868511976,-0.572244472340989,0.003025642544429754,0.001061595940529536,0.516900150999454
80,3.6136250032033863,-9.333855334278908,-0.5749858973600883,0.00012766823277347687,0.0047100111677876606,0.534683687169391
81,2.807226651520196,-9.321296337400774,-0.7165309820021143,-0.0012090921189874596,0.006221644614842076,0.559739531577747
82,1.775139994396362,-9.176084687105101,-0.3297445115098225,0.0026511873409089583,-0.0026374255120020875,0.6081906125573415
83,0.2777918195362099,-9.076617061568765,-0.07272345806349599,0.007208577090506596,-0.007897329581151018,0.6566376223522377
84,-0.25660042825431445,-9.04747561035835,0.18157844490094968,0.011453130910610579,-0.008377955743848699,0.6990974298948198
85,-0.9985166057888507,-9.025582039592887,0.30426536763236955,0.013772043091946323,-0.006791934677698621,0.7253195137742038
86,-3.432304285609081,-8.924156599452528,0.13111532554501257,0.01276961827071107,-0.007406608757200422,0.7286667723116932
87,-3.892314459955439,-8.735002859761456,-0.08782989473734781,0.010188307348047583,-0.014358358504421577,0.7405414192601204
88,-3.6020241082737776,-8.881158680687776,-0.25211013075757566,0.005595931674059407,-0.014024446254129505,0.7388640381862819
89,-2.5621802072810644,-9.014794528165826,-0.43614933260789435,0.0031779253240136088,-0.010168125666233142,0.7176166059307305
90,-2.0154831396419475,-9.191750065192156,-0.543236028333229,0.0028353604323267246,-0.006004857402285366,0.6853616239714099
91,-3.056263223368896,-9.477052427809786,-0.4617545979209653,0.0033201863640332846,-0.0044456726934548356,0.6564679609724346
92,-1.9913886070096098,-8.911764203962793,-0.41726383869604805,0.006737913362922617,-0.0061145808074809715,0.6446331571000244
93,-0.8468359930406791,-8.925817971864287,-0.047435682617981284,0.008776523760185409,-0.0034241619306702754,0.6292056631271288
94,-0.4873162776728992,-9.19200843135117,0.05408908750083945,0.010515751963992667,-0.001959067162001082,0.6186022494835077
95,-0.6347521343838041,-9.280383631044039,0.006899020194081503,0.01134617699215762,-0.0025368943348518967,0.6167332511812935
96,-0.6435272630566498,-8.866931317310838,0.106878743727718,0.010231476717678673,-0.004221074323835734,0.6248252568949066
97,-0.23000747867083338,-8.78911314056343,0.1019825935396342,0.006808459016984861,-0.005143200854501654,0.6375174128073539
98,-0.37015195411232665,-8.974103249367975,-0.22406132364092576,0.006227343102320035,-0.0031422512870046965,0.6452363508779226
99,-1.3146489015750134,-9.149011903038032,-0.35558033140792333,0.0046487758704507965,-0.006747188750686512,0.6600533201517615
100,-2.3647669569123484,-9.089645126637521,-0.24385222865678666,0.003469705911011424,-0.010747005386437363,0.6757757261602064
101,-2.646621911725331,-8.72134992477921,-0.05677539801121659,0.0050999610161551814,-0.007329869877371736,0.6817868203032651
102,-2.5110657220509247,-8.963709120781234,-0.39633519625604463,0.006781144756448264,-0.003875078823103264,0.6800973498969938
103,-2.73528038393209,-9.286602183119955,-0.4200865446565909,0.007110268550983285,-0.0032839824133424084,0.6698163542981719
104,-3.2814913306218223,-9.170452670313267,-0.2536154499362933,0.007650657112852836,-0.005808912753089086,0.6629873406703148
105,-3.2245024507582385,-8.803209006131027,0.040862776915021215,0.008526758358563797,-0.00682649920568735,0.6566866589050888
106,-1.7624760557201649,-8.597603824423263,0.316757755932401,0.00903831201340255,-0.0024978197812028334,0.6456792880462993
107,-1.0479921679056088,-8.848137702748017,-0.27953359551072277,0.0057152307980685565,-0.006792272886457845,0.6431080585327074
108,-1.9904677485205273,-9.192679672045262,-0.4261915538623359,0.004490032089930855,-0.0074608829935035705,0.6434179245314966
109,-3.048942171317938,-8.885391531506876,-0.24477757985712598,0.00515122206707015,-0.005918216563124648,0.6427532935713021
110,-3.1312099876099366,-8.402092466915413,0.021029613593367247,0.006537829024832758,-0.005118554607697088,0.6419508288873359
111,-1.7280337306782267,-8.461811025965783,0.08843081857757834,0.007281505830216006,-0.007464024095178961,0.6436346871903094
112,-1.4378358228192853,-8.675603152047653,-0.2427093698458737,0.007220630859325268,-0.00750967196322728,0.6529695515391007
113,-2.2252109717355832,-9.061716085995698,-0.092690223827149,0.009351499090560997,-0.004584328011038428,0.6515393255859576
114,-2.6566097088522094,-8.772102153475123,-0.1435868234198932,0.009879640816219615,-0.0026676572884431478,0.6486512625718799
115,-2.63100540310947,-8.431415106396503,-0.3453187947235846,0.008743669875870413,-0.003911421347769136,0.6502288680993078
116,-2.5447465624035757,-8.84972720783453,-0.439488792925708,0.007101106997500611,-0.008529784618838371,0.6587259709088492
117,-3.3771692289601685,-8.915878019588705,-0.2899849170856907,0.006260667805790197,-0.007671506353022996,0.6595613714331995
118,-3.5341740357267035,-8.514797574276667,-0.04238533610390802,0.006199022945582007,-0.0038343974051600377,0.6495910438291493
119,-2.78372218717542,-8.313124088646026,0.01764120649520417,0.006720455724773689,-0.004158347008631398,0.6463631026107953
120,-1.9352099909544977,-8.492488851939164,-0.20346170611521755,0.006954927193451955,-0.006714299294472949,0.6489204086573923
121,-2.0027447963342615,-8.981475777404846,-0.5993554477138779,0.0062753614739505074,-0.007239007003111538,0.6507796348443454
122,-3.1464083893634522,-9.044775390533317,-0.16087503388908242,0.007137614046396042,-0.004632853797809188,0.6465378882504325
123,-3.2646731141230036,-8.53845488245851,-0.01089894032233087,0.008714990292996721,-0.0042237771296292975,0.6415898409332343
124,-2.67519637064201,-8.413259104314674,-0.1942814989269035,0.008360488745659847,-0.005790784726650504,0.6441524760656885
125,-2.2751418866087323,-8.700723798027436,-0.43997304232446444,0.006952264010282355,-0.007187437939311893,0.64909260345517
126,-2.8928762306020284,-9.059938492543758,-0.3989721866005782,0.006206008530759301,-0.006058349395551022,0.6485595200171459
127,-3.714043329062867,-8.534093131145092,0.13257400352140258,0.006238892449382123,-0.0025856165413636356,0.6434555637814052
128,-3.4023602204667784,-8.180191414124408,0.05556482228167756,0.007643956775982678,-0.0042976704192896975,0.6463457257670971
129,-2.7623600560340744,-8.382329788081964,-0.15759485004327117,0.008265937785962144,-0.007954512253601505,0.6526567515096062
130,-2.548554090987726,-8.65316384622988,-0.2925518538269553,0.007962096264589144,-0.008613041064444205,0.6539920694916244
131,-3.1489488979633444,-8.414160711721017,-0.2710490781728238,0.007187413527034015,-0.003160917532822309,0.6446631620237826
132,-2.678661900573053,-8.155874920814753,-0.45413355865872723,0.006363658150746148,-0.003151945000189477,0.642955525503219
133,-2.9548458800955903,-8.261273343049448,-0.5972351559314716,0.006915020052857537,-0.006865866538575859,0.6492548246412737
134,-3.6035405147741155,-8.458104309258802,-0.42680389204629243,0.008265360163371756,-0.006475269587117081,0.6476654152613441
135,-4.178132690780082,-8.413692824879366,-0.19016339526974382,0.009084428969358517,-0.004223799471792311,0.6415381656153917
136,-4.217049772149919,-7.9581681021721815,-0.19741328701874733,0.00809181097374204,-0.004573981238417782,0.6385825007234661
137,-3.32100867722649,-8.01885262493008,-0.21225682469980867,0.005581339185716022,-0.008023948503820615,0.639412741379225
138,-3.1236506000146043,-8.50929067532541,-0.3198060671473647,0.005216099203529673,-0.007046612402389291,0.6402534362197111
139,-3.390011871481032,-8.529335345982371,-0.2978549981583914,0.006247757610532477,-0.005309944942128556,0.6375030887765952
140,-3.8465707030820546,-8.30738969676744,-0.09858365416222366,0.007638819538995038,-0.004496793472400642,0.6345484563899827
141,-4.613296526874882,-8.395746730261726,0.1284362795194729,0.008194423160311392,-0.005552507920511939,0.6359566431039013
142,-8.454381482667177,-9.425087682776613,-0.6548070799996933,0.006486274060116035,-0.008165482198889046,0.6418859707115868
143,-13.595135009651111,-8.721487956135768,-0.36734384602633563,0.004203442281258039,-0.011411415678722593,0.6259564571362279
144,-17.35570183077067,-7.726949447118459,-0.15981353965913547,0.002994442628228155,-0.014648911683448788,0.5831819159298999
145,-18.894474318844157,-7.43516342448988,-0.10943635780976955,0.0038332566806243084,-0.014335084092402202,0.5105390247537892
146,-18.133136568193056,-8.362067728267613,-0.060514011545193154,0.006383644881339491,-0.007881960874816461,0.40500964843572257
147,-16.031770941976706,-8.964209527173146,-0.13474689306507842,0.004061339663443004,-0.0019435624309424519,0.24880576829268017
148,-14.181318877720408,-8.65404589539104,-0.02436828839008812,0.0011827855193918524,0.003374743718096082,0.06777494297104715
149,-11.879054294714539,-8.49915652205897,-0.020334586857621212,-0.0006042307957316306,0.004118989755795414,-0.06387077664124818
150,-9.947173031236293,-8.541607399381293,-0.0711544022463758,-0.002191369895086661,0.004229598948998017,-0.16915116719579504
151,-9.299368670572377,-8.59216052605982,-0.09213818425571041,-0.004622248799213977,0.007259057740310148,-0.2800409649263527
152,-9.24015459493843,-8.651635976828743,-0.3262703971517997,-0.005981509313757425,0.00232063464246097,-0.32756586120519976
153,-10.270787959816422,-8.546974006563183,-0.19084983500564845,-0.006530545726505653,-0.0003207043922165998,-0.3889914855965185
154,-10.847497117374372,-7.876054104270137,0.07447293915480273,-0.005493848519252916,-0.0005422185689999081,-0.44066980484996454
155,-11.000973157252293,-7.474725281126053,0.15084901164260042,-0.005648898875807584,0.0008564590832685686,-0.48634836355275485
156,-10.979358839367757,-8.025280739026599,-0.1512576615167545,-0.009015314657322688,0.002834436814251381,-0.5376625189445431
157,-9.9492296723474,-7.6424198823416205,-0.20828831429420494,-0.008534014044504053,0.004919787999808128,-0.6114981929193989
158,-6.998443890806401,-8.21744803963789,0.07656649076351155,-0.00733598789877422,0.005510988691269732,-0.6845862559094604
159,-3.6700948441441357,-8.710426965924782,0.1296391893519881,-0.004540176845165342,0.007944108740457088,-0.7492015419536813
160,-0.9214543103789509,-8.869381010276143,0.033907900237613725,-0.0036372998829711815,0.01256511199319556,-0.796221424726512
161,0.5877326855551328,-8.651758302678894,-0.051899491153850306,-0.007373311560558267,0.01781771501541303,-0.8192933555449509
162,0.9576983151358407,-8.055714604850502,-0.4648950020512798,-0.009015917498604418,0.01611629383905961,-0.8235502883618407
163,0.2982518132310018,-8.371649168724444,-0.08547084656460585,-0.010380511008124618,0.013333086413808794,-0.7594497302031473
164,-0.2586002837638659,-8.212666727885741,0.1618626228694841,-0.010112932259344962,0.006694694905980433,-0.6915421609832859
165,-1.2958079384024965,-8.093055129306803,0.015411494970617418,-0.008782217862869923,0.0012982301753032854,-0.6393801907152887
166,-3.2926241929264446,-8.630219105495925,-0.4542463027762974,-0.0071351537288885285,0.0013877482743650182,-0.6058156639667812
167,-4.161749798925567,-8.62459510606868,-0.30191074653890726,-0.004076896794947128,-0.003136971149141315,-0.5624815426706029
168,-5.292937367071831,-8.416350256289995,-0.047074944567229694,-0.004335432339616041,5.3878876013059226e-05,-0.5663541747494559
169,-5.255316115192641,-8.296381084076925,0.06392073086159403,-0.0041036560934652805,0.0022572080834052884,-0.5716188521472102
170,-4.6931445127614655,-8.551785326841053,-0.06817871783878465,-0.003806368259107737,0.0031776028634303123,-0.5836466951398853
171,-4.564766574999137,-9.175870091130385,-0.37740983303760806,-0.004648255776516327,0.003978736373068396,-0.6131602730440513
172,-4.843219542236438,-8.709346495877117,-0.16677341288221287,-0.006970811874379253,0.0032559381960699154,-0.6411919746766812
173,-4.147312233508565,-8.395196723652985,0.21389555568878738,-0.00785963248066681,0.0025175303215842558,-0.6662529624629965
174,-2.9255327061932097,-8.224508067405036,0.061200555901058856,-0.009560025072631897,0.0044586137853854565,-0.6924708772264608
175,-1.7498277346038162,-8.548353922020276,-0.22773440651354443,-0.010691013453732561,0.00705060701272221,-0.7133575841946712
176,-1.1774643612209577,-9.39807373770536,-0.17239295397840038,-0.009701924293985129,0.0076378467050632,-0.7214734259635719
177,-1.5498768534311276,-8.885361317281076,-0.15313093354805468,-0.008075599140915175,0.005879794314498751,-0.7146585566451912
178,-1.9845737750710646,-8.659418384014444,-0.17564368395744248,-0.007973000638889704,0.004071560876700185,-0.6975041325665667
179,-1.8218780463073547,-8.688713472244554,-0.18555408445616922,-0.008046581703330585,0.004437900110255726,-0.686228356995453
180,-1.927621520289224,-8.75080640417594,-0.1771403954041496,-0.007483120933632579,0.005475050057811724,-0.6772218013644072
181,-2.8948038694841842,-8.627182784365505,-0.15882027942575816,-0.006211069535763829,0.005088573494875031,-0.6635342620220663
182,-2.365302796459944,-8.338393503221676,-0.15314224720548347,-0.007178474035654289,0.002403570784779419,-0.6431680070407246
183,-2.3283285441429227,-8.320385929100048,0.02073113229873399,-0.008063961478787756,0.002792407209700758,-0.6354169335413792
184,-2.2013169199066907,-8.50842898301498,-0.08424273978203572,-0.008381928570917942,0.0025755736772610305,-0.6347759624794771
185,-2.30973015889742,-8.783086028931052,-0.22292756948053347,-0.008344576840681609,0.0023874490756490598,-0.6404998114105244
186,-2.9372039467114153,-8.972667012323821,-0.1409830657302635,-0.008385442112104033,0.0032970089105792367,-0.6502626602442533
187,-3.312063301551127,-8.72940050447292,-0.25422080975737393,-0.009214815960923432,0.00416358466393037,-0.6511240732600059
188,-2.302517976879963,-8.426284521026666,-0.0740297179676344,-0.008538696108663276,0.0050623961663781025,-0.6586555124221032
189,-1.5321738229674202,-8.658096122549637,-0.2301224550472365,-0.0071293410202266285,0.00488277085328327,-0.6665932805710317
190,-1.3526201345267008,-9.081707678672366,-0.3885100166111174,-0.00637778483215638,0.004038523532336938,-0.6703846562321427
191,-1.7746421993079229,-9.224083175645466,-0.18333356219754143,-0.006904705524314674,0.00371676857998133,-0.6688137447184002
192,-2.571340671473786,-8.94505751419992,-0.023015945149154504,-0.005201385903242753,0.007188158504855374,-0.6738976388309526
193,-1.8861432773576938,-8.692310254952975,-0.06107882689591122,-0.006482578184963169,0.006084141927517713,-0.6708099699989377
194,-1.458963841757106,-8.875020156154513,-0.18994746722722491,-0.007687027837276422,0.0037757023576007044,-0.6617767576348004
195,-1.4005950183167855,-9.164546931903606,-0.188730272331725,-0.008268631482222271,0.0024476907202473585,-0.6521457009618042
196,-1.4884049778295618,-9.167550459412604,0.02475025501621308,-0.008183462097203522,0.0036259716214774355,-0.6487240789038575
197,-1.528044152427495,-8.888284160201245,-0.18625903539776245,-0.0072604151599565065,0.007139528554848334,-0.6623036697378776
198,-1.4325548309749028,-9.047842531198103,-0.12486514702221688,-0.007207335282208543,0.006003909843967949,-0.6549813798615975
199,-1.639404851926976,-9.080327619473293,0.01889606954489597,-0.006733815780895727,0.004240124087420786,-0.646923843428012
200,-1.984191377711869,-8.869788154672632,0.13364447731249604,-0.0059238903940114045,0.0028242042124135727,-0.6430248724622752
201,-2.1970096355146045,-8.509343205218691,0.14504239412604378,-0.005404011902210614,0.0023092671157999454,-0.6448645432823199
202,-2.081028346876208,-8.592401645750579,0.07010814687933864,-0.00701926651739301,0.004075620889434211,-0.6533770227668794
203,-0.7898077208819665,-8.716252047987375,-0.08832416290560463,-0.0072110088463531,0.0042852997741999,-0.6543875152466734
204,-0.7559807650807795,-9.075916197168645,-0.20201927304989598,-0.008283325703096589,0.004273040069498365,-0.6517196890458816
205,-1.3450824322517965,-9.17845301647018,-0.25776215870761404,-0.009002192611793657,0.004598440412492895,-0.6507301813544855
206,-1.581210322057138,-8.724124144493791,-0.27264389638040165,-0.008143429738420516,0.005249359039767515,-0.6544020437031619
207,-1.6462968680018923,-8.763971577188421,-0.2879261796822379,-0.007308523142469169,0.004386122869752335,-0.6543890346594409
208,-0.37281215686585206,-8.931500429983348,-0.324259387065918,-0.007230416947206238,0.0027484282766860775,-0.6513842851687585
209,-0.29515152539568973,-9.159970793571723,-0.28026500995132236,-0.006713061488713301,0.0032000949910499722,-0.649598463878488
210,-0.9691802732114627,-9.267131529442246,-0.23040729385702263,-0.006189755093029257,0.004930513417654865,-0.6510316087284986
211,-1.4544401741725848,-9.118565844120422,-0.2495506257635069,-0.006166357500619286,0.00620815547578076,-0.6546419392990769
212,-1.1583697960028703,-8.838701148557325,-0.2775623400532226,-0.006204935302866222,0.004454785597865872,-0.6486955360759161
213,-0.6431253080092788,-9.153685257608853,-0.1912081445565304,-0.006987326219567364,0.0026990538521832474,-0.6420070731875406
214,-0.7457756789491066,-9.32201335933592,-0.1591269636594041,-0.008344314885653233,0.0031739044564911304,-0.6433268684289983
215,-1.063886041051223,-9.238364723650527,-0.19047068298736647,-0.009004215296911696,0.004930545938481759,-0.6499367973977171
216,-0.9737582493816045,-8.99479852709334,-0.2501485716762344,-0.008248051717971796,0.006209967294368768,-0.6553681964151258
217,0.1380961294640009,-8.983136286028593,-0.24969988668521975,-0.00830322753455525,0.004444151185150285,-0.6468765728818109
218,-1.0368112557302225,-9.318059486098425,-0.06859405610254951,-0.0068283676254818175,0.0034790679340314778,-0.6458967962343354
219,-1.4157350333955292,-9.263902310785095,0.1094307773713584,-0.006212508451362295,0.0031741335969894973,-0.6475115379652832
220,-0.9165045001603287,-9.00471814604704,0.11901954142909908,-0.006515538876118027,0.003524407133178306,-0.650720930230136
221,-0.0384864179236796,-8.86231690091028,-0.08392048978349925,-0.007331971478177502,0.004400799086378934,-0.6535668190106747
222,0.6451670007591893,-9.041074101438761,-0.1016243298552804,-0.008205617164240842,0.0052349862589511804,-0.6476393874118853
223,-0.22507222993209586,-9.456784863897553,-0.360339197882743,-0.007560542745192581,0.00532703869626102,-0.6469721441085949
224,-0.6376639699503915,-9.322470076789948,-0.28233414697744474,-0.006739767662086399,0.004213201563436096,-0.6447878679978838
225,-0.4512439541834367,-9.070165101483218,-0.1309358161474375,-0.005920231599309291,0.0034847506015110393,-0.6423736053446322
226,0.047746903782430045,-9.143431772683588,-0.168379463939761,-0.0053294703736050325,0.004217416524900519,-0.6408057840063266
227,0.24300654161669263,-9.20876423863489,-0.08318584174134389,-0.00620381925199052,0.00418903930720807,-0.634875379132619
228,-0.281931977008106,-9.070647157937085,-0.20819567488413757,-0.0077227161445127855,0.005771298017186927,-0.6440787445454781
229,-0.5514544810234513,-8.941863424513542,-0.20250539142708507,-0.008309929008514162,0.005293110408210148,-0.6458641372579847
230,-0.32640685037102546,-8.908625011597023,-0.2269814419943224,-0.007684237956323879,0.0035471038040695057,-0.6414583640775259
231,0.6725618198150285,-9.005264153566646,-0.4036638846414697,-0.006525935361832087,0.0020405725776694375,-0.6358607081767984
232,3.507496862356088,-9.170061969391123,-0.3967633925756877,-0.00821772307096204,0.0020253160061902216,-0.6324863371792888
233,6.15762732387256,-9.495138049622666,-0.25201999615807064,-0.006825077579099748,0.007472272558153569,-0.64500488125116
234,9.93104537927953,-9.285630567727772,-0.33783146996951974,-0.007391977237589405,0.019539435185646107,-0.6316403903990613
235,13.139844484599603,-9.001040464065516,-0.348349618839513,-0.008057260763930927,0.02124778942230382,-0.5840881300117019
236,14.519982367474338,-9.174181135424773,-0.16586592836636033,-0.006424007221672723,0.004876467897545844,-0.504327569075678
237,16.014036689048282,-9.94270658576796,-0.7787682313328265,-0.0020611288046245182,0.0061104276774408585,-0.40498506439881093
238,14.284383883225932,-9.4070823717673,-0.3322396915031446,-0.0017755171980140413,0.004778265512307256,-0.2532927615929218
239,11.691827355612094,-9.047014430613988,-0.009651857885638597,-0.0009954967126990552,-0.000271309485132517,-0.07953547276844694
240,6.992785983518523,-9.000241961978904,-0.01874776333481934,0.00019362420992362863,-0.004659340684548983,0.07173295917810785
241,-0.02570335062527551,-9.196621382316335,-0.28488243700133153,0.0013998466023686573,-0.006829089947750526,0.18037603201273275
242,-4.16628429226862,-9.633081560310298,-0.3130879894904839,0.003838933408912453,-0.01871344157986864,0.318779452265472
243,-8.304671432980125,-8.88369120928063,-0.28697107060920124,0.004874553868905258,-0.021463099661915466,0.3277818116742402
244,-9.786105338750726,-9.085053182926032,-0.2139459646215142,0.0014584327947620265,-0.02703514835385922,0.31687722461246565
245,-9.76860132593558,-9.52035667030547,-0.12580579245608606,-0.00031749025432491673,-0.02008555810924287,0.25264720524762685
246,-9.109129769173274,-9.433843544313099,-0.036815100567911374,0.0035395823118160603,0.0040483693582495876,0.11612724166002174
247,-5.18876646418511,-9.477832737946581,0.11860598997293914,0.005099853722460417,-0.0005800243345884743,0.004985981370949761
248,-2.122730832378395,-9.824268103204549,0.025946665154523478,0.001382542421266007,0.010265605943877602,-0.10245905887887075
249,0.7921569045245056,-9.749552264218643,-0.10738029936427257,0.00014163839648820758,0.010975905160529053,-0.1818707844991969
250,3.106901803880021,-9.486862281764441,-0.21748464925829525,-0.0015719045797738683,0.01204607790830518,-0.2260541237352146
251,4.524219013769375,-9.339800123680208,-0.3011852196734116,-0.0061632300416736745,0.02238399463393178,-0.23298017273602653
252,5.71730923191444,-9.351221406614282,-0.49142899220009706,-0.0088737362396576,0.02740461971904233,-0.20162912940488165
253,5.371278474896226,-9.426440177450319,-0.6185826207672533,-0.006513688071541943,0.013648032303407318,-0.14035103946904076
254,4.095000023870524,-9.552481582647593,-0.5836390802922324,-0.0030640004278880357,0.005657723076238299,-0.0735737062093133
255,2.331718985617363,-9.691959204487617,-0.37648115928085085,-0.00032534370250630705,0.0011916258437129033,-0.007334923730211397
256,0.6621393525959506,-9.748236649769511,-0.08430423713011362,0.001071647968247809,-0.0033657296214952897,0.054028544636595455
257,0.177171179428699,-9.42338489937856,-0.05884989063367192,0.0032613887814382575,-0.0027425246681290357,0.102426788506909
258,-2.2921904282801386,-9.08718523316487,-0.08954446459109106,0.0018443700569143653,-0.007440187862655316,0.12629535126825936
259,-3.5078609662345728,-9.186768622565843,-0.23918589613521946,-0.0009168745782674456,-0.012047576249241264,0.12644292574902097
260,-3.6102899627582126,-9.318031236583618,-0.24297903701493087,-0.0024571284396024116,-0.010011841032122826,0.10854005424482767
261,-3.1332116325408315,-9.238961335387012,-0.026349475390289912,-0.0016831533864425238,0.00014746068615962757,0.0784203321289558
262,-2.171594619146531,-9.63741480920498,-0.27338190266747664,-0.002247917238972388,0.0037993041529889317,0.03681608612537283
263,-1.2489176087589415,-9.496588243775152,-0.535171339535452,-0.00132626378482522,0.004313572395976493,-0.0009220612725303907
264,-0.2848699063125829,-9.37749029942114,-0.3884282958584249,-0.0008053081977166942,0.006745064583218599,-0.036598714514386
265,0.46464087709499036,-9.38153779085587,-0.13729152561018904,-0.0006324820666065305,0.009624362955828436,-0.06314965969553907
266,0.9158418957089156,-9.499559877135594,-0.04803619260100487,-0.000424974118479017,0.01127259434462161,-0.07507068202497275
267,1.6484325669818252,-9.58635582872486,0.054221970949048674,0.000398700651719464,0.012125377672008867,-0.07336602539572452
268,1.3739823620762655,-9.545603819966724,0.30004363630923186,-0.00037593712787899474,0.014477913494338907,-0.058613022410486104
269,1.4595235264389785,-9.575430912499236,-0.07332882822371828,-0.0008148647787172967,0.012988044857670768,-0.03524451513382071
270,0.9270792300190389,-9.566287444939626,-0.4864821826999039,-0.0006495975781078325,0.010110452735306839,-0.008420921348938033
271,-0.5069065213576535,-9.519650468035021,-0.45375556454296595,-0.00010982940049515764,0.007991247600061178,0.01669806385717087
272,-0.05766254258107951,-9.917283427595153,-0.30959150870889585,-0.00023125684223300003,0.004452119263452059,0.03537971491803565
273,-1.5627576393744003,-9.474829523910376,-0.09448434758678365,0.0004300561208933725,0.005627744782367503,0.05020156915341061
274,-1.9822101908390095,-9.485992547800343,-0.08230536724502259,0.0007597486963254139,0.0034111632682070664,0.0434036401791209
275,-1.6337785593293865,-9.48889898672307,-0.1987153895954816,0.0008828278630433118,0.0027188698202037006,0.024544047372113985
276,-1.1608112700267035,-9.163807417277003,-0.299776778205411,0.0006139533559620482,0.007127729590366406,0.004428398447333656
277,-0.810420541482012,-9.300385362807814,-0.17041602685610774,-0.0017699614250139785,0.011530627865872266,-0.014286320982420695
278,0.2070369572443464,-9.453752934184585,-0.1194454460299159,-0.0018890260454317808,0.012783006402808097,-0.030646062473538523
279,0.5607322250454623,-9.591154113311047,0.08336240048120275,-0.0012760102379211762,0.01425993957381198,-0.040042774313451795
280,0.3071464306088386,-9.533084575110472,0.1856675730442382,-0.0004544127909000473,0.01561898601867438,-0.03795779982578586
281,-0.047956916800829516,-9.300936647732653,0.09069960725382628,0.0004311470812552389,0.015999564536053935,-0.02505471942359419
282,0.7981681804808609,-9.552903747380917,0.33066746109890827,0.0020408691006783518,0.014228252858220025,-0.015693830370964456
283,0.24310004839615593,-9.609386641274662,0.20559876489405865,0.0013301004005625795,0.012433027500356597,-0.0009435308729540673
284,0.10718268441084931,-9.354351647381385,-0.39919382854104035,0.0009629959741496992,0.012358363273613403,0.012080165043328619
285,0.05136727889260678,-9.23863207404497,-0.6770811175473053,0.00019399305268114883,0.01209362123141799,0.02430371518609775
286,-0.21690530668275299,-9.427657432972994,-0.29293500979217013,-0.0014042531577832568,0.010463236341834756,0.03424848079758972
287,-0.0970090378371532,-9.07557057012917,-0.5504526514644777,-0.0022121085170599504,0.009622094611040438,0.029997800615714703
288,-0.7422289269272347,-9.512232336818938,-0.4786851569622846,-0.0037771108960828834,0.009573540671992793,0.02496071943936473
289,-0.7211003408502825,-9.440428769709401,-0.22778326194374768,-0.0020491907050915535,0.010770049091551794,0.014248309945215452
290,-0.7068027889841905,-9.10674314417181,-0.030044744583196004,-0.0003521017546252135,0.011844351176972686,0.000686114922720573
291,-0.985210561205233,-8.799861483016295,0.12592217440414544,-0.00098334582591121,0.01217890321436169,-0.009396657282583314
292,-0.031912880751342285,-8.394899078775833,0.9836034800900415,-0.0010333166660894606,0.013865064553889122,-0.0017645662565264866
293,0.3491485776158813,-9.347562707852934,0.40465886115952954,-0.0009871494261149791,0.017202357267806948,-0.008902863495894826
294,0.6925135615793069,-9.416401585934508,-0.20320490204877395,-0.0015363307612443213,0.016637187494036764,-0.010044637894209934
295,0.4800427636492026,-9.302702773256282,-0.1352828496409699,-0.002040323351679656,0.015835061401681297,-0.007501743448328532
296,-0.2566498419128011,-9.545163306184973,0.4320594589356438,-0.0021983952561581022,0.016968798186088062,-0.004677806418848067
297,0.32521409138264235,-9.308476330494141,-0.8658777887402003,-0.00306072851037922,0.015225210001238129,-0.0004390425142714155
298,-0.004931898748286492,-9.488508800538074,-0.28337417426128886,-0.001594008110853209,0.015874841676544307,-0.0008525558975851843
299,-0.8334992356307718,-9.604597287819526,-0.1540376176851227,-0.000494797335802228,0.01615027755803847,0.0011459158673060032
300,-0.6888041700448312,-9.44048416926153,-0.2554552668172205,0.0003294058450322446,0.01686306412833507,0.002772042447706856
301,0.6728489763044976,-9.097666068268325,-0.24510965952202812,0.0007332141160168576,0.018289256374226126,0.0039316665768847
302,-0.04310302908779826,-9.446008886902758,-0.2201271864867455,-0.0010083780261160983,0.018236653317768376,0.014943291757007768
303,0.22910045207654037,-9.753347801680118,-1.1409129457097282,-0.0018709726775678753,0.01668260189321003,0.008803459993946288
304,-0.5279322492860654,-9.477339953472717,-1.2731106645321737,-0.002122887054092742,0.016709279082740412,0.005142313365855829
305,-0.862953697993801,-9.052305129055947,-0.8715517798453803,-0.0024652354051636974,0.017577872503097138,0.0037945626165178294
306,-0.04496964027953995,-8.88841218775926,-0.3636324673838707,-0.0031405547979410607,0.01845298456482707,0.0011940355511099036
307,-0.1301204597862108,-9.078230899732144,-0.038660649143453525,-0.0030686899709383313,0.01936949883639723,-0.009841421653195055
308,-0.21391853521774823,-9.182423036340813,-0.6382322968243922,-0.0022936735114548437,0.01785209224686065,-0.010693921774417461
309,0.25347644686569215,-9.04920566245543,-0.4767049904380739,-0.0009420318480917529,0.017830751608531682,-0.003834608455592697
310,1.125161223312868,-8.976983950577738,-0.2171390982593839,-0.0003704871185800356,0.01829751743674683,0.002411995506336699
311,1.6866316125005174,-9.158160205841106,-0.36345089543427994,-0.0013476678310194467,0.0187468894036307,0.002073664435802592
312,-0.12111049817558682,-9.417362806484158,-0.4092522294184763,-0.0029796063373108295,0.02136335807087955,-0.0038957808018627842
313,0.43432107979293394,-9.403875575318587,-0.47093526128510055,-0.0023847963192391796,0.01913725213729279,0.003499777904096845
314,-0.19990104443780593,-9.325777456470039,-0.028763912170252037,-0.002637243500500871,0.020646020085651688,-0.0023175830388115362
315,-0.6668517420216337,-9.393152791702263,0.2593589133528225,-0.0027324643558648575,0.022289119041142176,-0.007133139003885819
316,-0.08347224888793929,-9.540736256358963,0.036460105348642025,-0.00222807662416549,0.021397213071969103,-0.001183851576061061
317,0.0887868802290039,-9.00474136190188,-0.04539981337347618,-0.003101561022363857,0.02050707936406921,0.004749542603379078
318,0.29817434782596713,-8.69619824614351,0.7990805081162438,-0.000869392060681615,0.020423307212470973,0.008361631213219341
319,0.5221356569285236,-9.350921455081274,0.6026010436010963,-1.9436853334805597e-05,0.022198364335672904,0.0025851490301094936
320,0.6650965506174723,-9.95118534956455,0.05889200520883289,-0.0010632033654830503,0.022231667232233597,-0.0011008084585131138
321,0.47987729541679847,-9.745263670953019,-0.4023182260370989,-0.0029918077609380487,0.019841135608667376,0.0009778899714860594
322,-0.6916805315887764,-8.969260389310406,-1.6603673976623936,-0.0020797455604927412,0.02248463919448243,-0.010901907431115583
323,0.421239714417513,-9.320800669728825,0.3775097325888748,-0.002085056552929638,0.021823641446367358,-0.0007493310681871146
324,-0.3350151773196956,-9.279483172232613,0.03314114486790831,-0.0021136475348146997,0.020356138221809005,0.0036606893530104494
325,-0.6561949479446707,-8.892473402040459,-0.6603792044377657,-0.0020956397651088338,0.02196720047112851,0.0008708535750757301
326,0.625443137379995,-8.678914635066146,-0.30895666175623276,-0.0020591027327148516,0.026489478756406535,-0.004811922167374481
327,0.6171238044396881,-9.979924262514633,-0.7268965029232671,-0.0020809967195393247,0.02388680314530884,-0.0014085559891270883
328,-0.8879182725637503,-9.132137722421902,-0.38038928543703393,-0.0020259936997604976,0.023744568666794558,-0.009839720823368557
329,-2.113185959770661,-8.807423400867645,0.4217343058230527,-0.0014800816437283574,0.02431331369640065,-0.006483079679516434
330,-1.6663054493246683,-9.054095726640721,0.6461105490780059,-0.0014239668922011739,0.02401763316238715,0.0028540537186550778
331,0.27648119411365524,-9.469102358984344,-0.0922867533800403,-0.0019937551774747643,0.023045315189076914,0.008356566493427963
332,0.06605100797650265,-9.159897366819727,-0.5974714804260517,-0.0010809090272453,0.025688008984272353,-0.003523218696735153
333,0.07111465602910859,-9.010834739709283,-0.45633279306461305,-0.0010331241096850022,0.023452054434258084,-0.0019647406570695108
334,-0.05957577562129077,-9.276435126424893,-0.40104220784976696,-0.0010007332878352387,0.023827293160778043,-0.006937953891865777
335,-0.2882527083860653,-9.648785594229999,-0.5578547171338452,-0.001380431458232628,0.024048184112240155,-0.0040666510455726525
336,-0.40639307762574345,-9.787478744252113,-0.7268257467849448,-0.002144455423717773,0.023365002025501916,0.008330951690015256
337,0.13044858328694559,-9.359539368611138,-0.06852369032624753,-0.002067380349626686,0.027732688480919882,-0.0035648318496016886
338,-0.26036746544489137,-9.6176284908898,-0.25917264552051933,-0.0020363202968958598,0.027241302496414117,-0.008318570221166263
339,0.03550638100058895,-9.644281657924555,-0.41243656099261905,-0.0014488954467344027,0.026390777051058238,-0.010812272346328259
340,0.4516338455532645,-9.654589254068895,-0.6349024918252286,-0.002078027374495508,0.026639478366093233,-0.008468384940401344
341,0.432796656907666,-9.777251916865675,-0.9361114782747015,-0.004181590987439847,0.027049357162396353,0.000706898826368699
342,-0.18919582351175152,-9.740081319120874,-0.9225965454608824,-0.004286253931979451,0.02179835807215256,0.016848495531654784
343,0.5639347286925606,-9.651914976746761,-1.136343216493198,-0.0026394221991939935,0.023941928497390276,0.0036330888711704054
344,1.3569926053900425,-9.502255746328977,-0.7442754103581952,-0.0032418084151162657,0.022996338879773592,0.0011476360590021786
345,0.9888222999942401,-9.041396317507303,-0.2198795103508518,-0.0038157305981540808,0.02266774853710844,0.0004686614093592054
346,-0.671679812635722,-8.493966872448967,0.1550842446459449,-0.0031287108793019176,0.02445661064504994,-0.0007288756752023519
347,-1.5540184768341558,-9.178677308823797,0.7439484397896081,-0.003255832280350293,0.022637654445145285,0.018795219575062867
348,0.09260469373819208,-8.925797780330392,0.06253155286595352,-0.0023836350679461707,0.0250173528202054,0.004929094367737039
349,-0.43242702942518363,-9.303960829271332,-0.30009977014630745,-0.0014965513783720716,0.027049249079879274,-0.0030272234003974295
350,-0.8608929467050286,-9.275048990685198,-0.4266722572253597,-0.0010014574127825632,0.02766031851800767,-0.006895150970057877
351,0.2239260548608099,-8.548797729787793,-0.5564188334609893,-0.001297757359666938,0.027785182346630067,-0.009655136460438807
352,1.3905901566073806,-8.823280600677112,-0.9874147165958923,-0.002968596168248842,0.032096113736476244,-0.009690100838224696
353,-0.9042517176403229,-8.997333110871049,0.5806336444150622,-0.003968259833605391,0.024184915084555142,0.00784914277814462
354,-0.5065230123079076,-9.319066561942446,0.47836982148245877,-0.00244407789862024,0.025110829077042356,-0.0009508062251959333
355,-0.24655444807169125,-9.129690009494615,0.11390209662481332,-0.0013591278483043533,0.026529365059572915,-0.008356557991947702
356,-1.3859927496750486,-8.444313865764224,0.3074606364226244,-0.0017647100024776748,0.024357472490245197,-0.0012343891652912508
357,-0.5844005522501818,-8.80053301944612,-0.11169333618828722,-5.5857709960264254e-05,0.027833011158887002,-0.007166690047895076
358,0.5269495266160088,-8.93653120317462,-0.03884242514725831,-0.0016655945095683834,0.025503367591471364,0.01401969874809561
359,0.01648545123458972,-8.905214785292685,-0.5187542152735449,-0.0009935149613367613,0.027111784655440587,0.008788009544304419
360,-0.3234062512437916,-9.329454334478811,-0.7564902439857547,1.6445960115051467e-05,0.02871412634894662,-0.0030327985485903456
361,0.28160182370975273,-9.922888074489792,-0.4153279201624516,-0.00044203317446558227,0.02820035719249264,-0.006465791698883908
362,0.046703011277557195,-8.437080991971602,-0.31754772500413475,-0.002947375397179474,0.02906412713138946,-0.006498860067773564
363,0.4482591957992496,-9.838865960031061,0.17183122331311748,-0.0032058172170921,0.023341278437484722,0.011113809325147276
364,-0.16892687337010032,-9.470653284841294,0.32876901473265396,-0.0025652667854729463,0.02571551058785712,0.0015576246164007903
365,-0.48304490121747723,-8.86328454968329,0.2237207810657071,-0.0027878907540696304,0.026821215045914077,-0.006591666548846989
366,0.0340775720589627,-8.943142202477794,-0.012066221193956339,-0.003851427740620135,0.023457525286686952,-0.00021886601536923948
367,-0.021221523367783178,-8.626020889335027,-0.24834905743668476,-0.002143439928289747,0.027794820445536283,-0.006154156203705694
368,-0.7526230047523389,-8.927125761063866,0.3841657114532737,-0.002152593354748819,0.02470192653178367,0.009554955626341751
369,-0.3650694368216898,-9.469280971211365,-0.09330366749506191,-0.0027126607967213833,0.02546206709540831,0.006470191995291018
370,0.022192616665518555,-9.682186139474219,-0.4032293663002792,-0.0027561532403244963,0.026164739769991778,-0.000879525326109858
371,-0.2085576722880348,-9.44720361109008,-0.07003169502890857,-0.0019067399475415092,0.024956770352272624,-0.003061181527163335
372,-0.3720080959387533,-9.517075289919116,-0.5622175402671337,-0.0010435422131331554,0.02583860204691536,-0.0072969561260078685
373,0.10172469555659826,-8.782774449810624,-0.8010595565648,-0.00022290214129543344,0.025873583679962363,-0.005105966879004493
374,-0.31303212650649814,-8.236381146909697,0.071173501729203,-0.0012270555125173195,0.023401837757286693,0.009262378946488433
375,-0.8888922369287025,-8.24147312160073,0.005580449020905376,-0.00215651454658148,0.023805148532289443,0.0101721606732447
376,-0.8615354922045291,-8.941086147574019,-1.1659378007760723,-0.0020479613903404536,0.027354913559233564,-0.00653564595868773
377,0.40300311472198724,-10.202847818275794,0.27383042189261625,-0.002080845308963353,0.023882180705046364,-0.0014316897229474045
378,-0.38010863203293144,-9.314680702419949,0.9411798783454146,-0.0020408789688445353,0.027002737978231727,-0.007615335648784028
379,-0.6159978691707391,-8.451319344924093,0.3756166954902236,-0.002096943398817148,0.02498875419184627,0.0010169577370261786
380,-0.14292464068877603,-8.592591565512723,-0.31983251522561873,-0.002124543908448649,0.025690986460856012,0.005236486020760061
381,0.3031263537158182,-9.629460071627511,-0.2748986135086008,-0.002239584786866113,0.030561303017780858,-0.0027619108326777365
382,-1.4478485439558388,-9.618216117105218,0.8516365440164212,-0.0030574901866615325,0.02712658779813494,-0.005305235133935862
383,-1.0959037975579193,-9.879113012798904,0.16616413887795012,-0.0014954415499454348,0.026146153028775945,-0.007829223401722287
384,-0.7764067579775047,-8.925352200461314,0.1585663680068192,-0.0004637186353583024,0.027658781586395644,0.00033352863929050295
385,-0.45378844565970955,-8.523806568698529,-0.2525677111612255,-0.001589897477864422,0.02746574093874376,0.012285027719612726
386,-0.5140971397463198,-9.142751628147149,-0.9947121139980577,-0.003945411308178778,0.02539046629255681,0.01611398703888517
387,-2.40160697214419,-8.608394825256958,0.49167713505836963,-0.0021155981429744077,0.028957297431948498,-0.008487255329643575
388,-1.7622157788804373,-10.40801071372194,0.8204193281449748,-0.002859041738571208,0.025819279908891078,-0.00401230321659359
389,0.04658175039816803,-9.595046433636725,0.518758190872599,-0.002520886575608808,0.02600450809833194,-0.00402951938581785
390,0.4396885133241367,-8.790053850338087,0.14584481564170335,-0.002475818225130603,0.025751280636409975,0.0011139452196150855
391,-0.9385906591984139,-9.259912653480054,0.020907962668612383,-0.0032032409455528296,0.02417092524747245,0.010704017893281754
392,-0.4702611519117241,-9.214528476340544,0.05809601336865076,-0.0031426078686164457,0.026802649856013078,0.001360211072523918
393,-0.16064671987460383,-9.05053320619421,-0.2962585483629898,-0.002301016369071822,0.024488176979652124,-0.00552834352810692
394,-0.8273098987516825,-9.081984515055241,-0.07400524474600491,-0.0020294765405423814,0.024956033268470165,-0.009327255750742348
395,-1.0290629688910162,-9.152643019105827,0.22158005943339762,-0.0020381335672813644,0.025889182928264455,-0.008016470845533884
396,-0.455953658567218,-9.254284445160364,0.24330631237970288,-0.0024299050729890016,0.025675800509181418,-0.0005114093324293054
397,-0.9262406559575095,-9.685644483248508,0.024389600323374398,-0.004188019818365974,0.024748991465865955,0.013049212675238588
398,-1.081735936770619,-9.23573445242551,-0.11034669221932147,-0.0025431489190540293,0.027273719776318855,-0.005807250783124324
399,-0.7232332043796503,-8.993561089731827,1.4523233519062024,-0.002618829724844512,0.025615768468240215,-0.009387267032642675
400,-0.029396288537488435,-9.111158181281105,2.0247063675419428,-0.0023238059195804916,0.02451883211118544,-0.00714828769739299
401,0.5250745772699065,-9.320362245040016,0.654434559328761,-0.0008471092460519493,0.025868636641612743,-0.004000292227213426
402,-0.03427821983425898,-8.713305110362267,-0.437518956705775,-8.976151210035563e-05,0.02580986749716383,0.007890615412193084
403,0.14032024812489885,-9.072765658642156,-0.7082718673271844,-0.0008149385121252846,0.026665909788557877,0.0018791992884394295
404,-0.695156463329746,-9.365894382003985,-0.5020411831210049,-0.0010102098969945264,0.02512250691410877,-0.005507945947629015
405,-1.2169967643700126,-9.764294492472306,-0.33012905262672526,-0.0013663868999583277,0.023743109276823444,-0.009641987852948872
406,-0.7070602581317409,-10.04753906463747,-0.3914476390592,-0.0018640734335108524,0.02409528875862702,-0.007874321657307753
407,0.38766608230747024,-9.225088422403225,-0.3710895865615226,-0.0010839619618644772,0.02577663347017034,0.0006154152815289438
408,-0.5989365181156479,-9.086518036706801,0.9423373741917437,-0.002724419254360405,0.024967073906087066,0.011528833303869283
409,-0.4551058007755591,-8.92605671901982,1.1223192725927453,-0.002554284861391914,0.025987853238805175,0.0020700951679724286
410,0.3656121416874346,-9.253261110934456,0.3573403344736782,-0.0020412857670492487,0.02617044585193095,-0.007538145773834834
411,0.8961972717669856,-9.898394431553,-0.6286267467456313,-0.0022220948280633817,0.02553438525680654,-0.006821655391593474
412,-0.4441940766740857,-9.506453301022479,-0.42671600265394344,-0.0030793791230612206,0.028966290136276312,-0.0034491804029803817
413,0.08537587427350679,-8.754608409700227,0.011088123011860365,-0.0023733382203336524,0.0273925541355797,0.006487485802335114
414,-0.02698911115751612,-8.997898455065606,0.5814402551899166,-0.001541271271380381,0.026893011041688716,0.007015013830635681
415,-0.4143155401431711,-9.279072064344097,0.8348196197424138,-0.0010443569380183203,0.02652951190198264,-0.00029717308427358114
416,-0.6306598289064075,-9.276267056455941,0.6867684749497432,-0.0009857106391994652,0.026261825776658497,-0.009284734378640993
417,-0.2792903553099527,-9.815045640301198,0.6304748323517368,-0.0009969372699555282,0.027977849169594858,-0.007593883419189221
418,0.5671371656153147,-8.868570707551768,1.3718660317358695,-0.001050666951906598,0.028000595054896306,0.0006441655001483565
419,0.6675670905625062,-9.053162150965,1.3213031557383044,-0.0011216937170847206,0.02671621548467437,0.011557669452352738
420,0.3715442883995711,-9.283400045141088,0.566419385164269,-0.001887529018073287,0.026601498332912216,0.010029870800509759
421,0.018731524430083846,-9.138587520758115,-0.19057976734410165,-0.0029268528035647262,0.02728496313944892,-0.004222712418804267
422,-0.16233631015306677,-9.436116437060184,0.6242899742248258,-0.0020640358371212084,0.023857207003746543,-0.00844359417746915
423,-0.4496983784595679,-8.697983524692944,-0.15319969867777386,-0.002087647451500045,0.02453029655756542,-0.0004002433998197769
424,-0.8102362976312946,-8.836060363746943,-0.076460163406836,-0.0015210845949944181,0.024751022829320492,0.004447501061463305
425,-0.4297309942289539,-9.29383195258906,-0.21035894846493786,-0.0014688551050495635,0.024747924577655362,0.005072505185898295
426,0.4544180190988918,-9.639639242210205,-0.7083465228215343,-0.0019099635698761942,0.024772449981793458,0.0001292559324595991
427,-0.01978395849860277,-9.758286828095544,-0.15483683701958695,-0.000985810258487783,0.02483817368446444,-0.013438403123861289
428,0.5440789001494725,-10.385489667304345,-1.692398689771877,-0.00016411507693346144,0.024827637027556197,-0.011410911370905994
429,0.7008541879765071,-9.704879343758982,-0.3550493600200699,-0.0005719632027555156,0.02355758964657429,-0.004601490076487029
430,0.5379962917818457,-9.827466253114208,0.8643334306978243,-0.00108674509055785,0.022991757910754893,0.006265239166724052
431,0.054654250088683076,-10.829363289694411,0.3994385330004908,-0.0007763467920175398,0.02400070161409617,0.014647172722100477
432,-0.9823261322942796,-9.599489020811019,-0.9037797951950147,0.0009595514664912993,0.025772667646826335,0.00447799452939788
433,-0.3289414437233879,-10.39481941375988,-0.2175980058188051,-0.0005781601172637624,0.02417830505221592,3.8839436177192494e-05
434,0.3207966222407552,-10.22948416389463,0.00020815636706884768,-0.0016477507732528605,0.02369583195367464,5.932986871570473e-05
435,1.3017897266160476,-9.370680509136196,0.12256400070863108,-0.001708733608649105,0.023687572763404142,0.0017559184432326446
436,1.9510855986676456,-8.67478450734065,0.22364414500361757,-0.0008904534710062647,0.023483910477627157,0.004400231346779974
437,0.020510983990539383,-9.725644156920756,-0.1950220910100766,-9.428604085341509e-05,0.02259243447060101,0.010353678234991599
438,-0.16124040586682964,-9.481997649623,0.07552230513781888,-0.0008282141587840601,0.022607611000938797,0.002274973212637858
439,-0.08293979581056789,-9.256864154006685,-0.31969485675386283,-0.00037492742715624825,0.022047373535256584,-0.010490731135535098
440,0.16848088059047886,-9.570135103516574,-0.1905625480837622,-0.0002994365310893841,0.0216135123949455,-0.014900327254575529
441,0.5235475433352779,-10.153845106118682,0.3903911799337292,-0.0006064768795386924,0.021783557141435813,-0.01038146556752054
442,0.8778532520871252,-9.664502725811998,-0.5339415167113144,0.0010852301478152864,0.022661378733366964,-0.013758819254365196
443,0.8226625095014082,-10.403373632974494,-0.4634400458356455,-0.002221141334944633,0.02093321604582041,0.001805101642434779
444,1.1052004295102758,-10.054617985767472,-0.5879950259703478,-0.0025058056628936643,0.021106352220514733,-0.0035643634838850875
445,1.0751466827269487,-9.995256737413861,-0.004957036008925664,-0.0012625382053082857,0.0219768617520488,-0.005466596787568971
446,0.6665801137930404,-10.418310482553904,1.014993595070932,-5.418936215436311e-06,0.022035599884566392,0.000438657716503412
447,0.6607076434822355,-9.754041587967851,0.504368489566799,7.230113796283796e-05,0.019507621138959867,-0.011433281096551095
448,0.5174322087983214,-10.583954057641275,-0.6769419690003013,4.1895620864367924e-06,0.018550673435911116,-0.0009725958727308487
449,0.2698049282007846,-9.985038454884723,-0.7365310422731854,-3.573287884242136e-05,0.019534735354816084,0.005131256267613831
450,0.12024315700219178,-9.654668355851365,-0.10905502684163904,-0.0012292788720859825,0.020028391913774042,0.005320039644402953
451,0.06878353191522273,-10.165598067898134,0.5636478573536601,-0.003137240189985274,0.01919063767986684,0.0006726713717925706
452,-0.16024281020614314,-10.449866646761565,0.42761767919412136,-0.0030984204180975424,0.01835712165685773,-0.005264786581381734
453,0.3354221874518516,-9.148465652393977,0.14445688568152956,-0.0006124125140283862,0.017522428646108965,-0.011172856258422438
454,0.2044267667571022,-8.645001815708198,0.22840973110940488,-0.000561905847431282,0.016014618924735775,-0.007232219194717842
455,0.04057262173931772,-9.59035536738862,0.7326096297486804,0.00020484195164526236,0.01552995911457919,-0.008098332812604005
456,0.1842111183129128,-10.956341118647302,1.0568759285257254,0.0017816518343179905,0.01621230828093592,-0.011873148784104035
457,0.5967521576468564,-9.548014977792002,-0.26678289957851276,-5.001138466551852e-06,0.016126504217920754,0.005928111020234436
458,0.17972832804425098,-9.990281763462871,-0.4007525238426207,-0.001694311544510256,0.01780066457536478,0.008772359560063028
459,0.3602495771502577,-9.882409113573264,-0.2061393561985571,-0.0009006958780096662,0.01703080272777606,0.004523035697176056
460,0.42898509488555303,-9.736079972892314,-0.032183692609451295,-0.000830944190435981,0.01613532835492273,0.004251123905130794
461,0.07084105084032503,-9.742850343698114,0.03634501917623939,-0.0019459268111561689,0.0161202013789766,0.007511212172412563
462,-0.4801924133235336,-9.60584448597283,0.23505383757756346,-0.0010549799184342414,0.01616102482797257,-0.0009644130114493086
463,0.05382465846989214,-9.336379331545258,-0.8919772123923909,0.0006051853830804612,0.014473632215378458,-0.0019357485729099549
464,0.2951236269917766,-9.529928446304687,-0.8041174839565439,0.0004616023605384246,0.012763285000989121,-0.004641786761761247
465,0.27924884831698127,-9.764292120809273,-0.4659863632782006,0.0004396490757108033,0.013121882516814044,-0.005994083812585786
466,0.042648925559661446,-9.817200984171166,-0.2896460740541272,0.0006837329161202791,0.014500395125168127,-0.004555948568672165
467,-0.41980811141622343,-9.734252673916073,0.08562156241660125,-0.0010078128990553168,0.011899061813196601,-0.0011726350991960964
468,0.20249516916249288,-9.65627375951263,-0.49136480499800017,-0.0010593159548732052,0.01437831429806594,0.002212808309831342
469,0.3210428374499228,-9.624683299317832,-0.7977641944370447,-0.0016818125610923989,0.014429457679359322,0.0037333711596302293
470,0.24153340599479595,-9.435460923251824,-0.49125409511976326,-0.00169605963917532,0.013160538307726562,0.001713628620115622
471,0.16721833878972148,-9.051666412051283,0.12256984340479427,-0.0010355518784162,0.011451511877542531,-0.0013788762600746077
472,0.13638786965799576,-8.641116562924557,-0.0347830390264887,-0.0010575316663266195,0.009710588230930893,0.002022306652932374
473,-0.2196362938025821,-9.425300865085902,-0.5829358872938215,-0.0002413865322627951,0.008830426467750256,0.002923183752781196
474,-0.4505966436071497,-10.332734419740518,-0.0768102534905439,0.0006202873509686875,0.010522196314630975,-0.0012135554238444789
475,-0.013645917613935743,-10.381877776107144,0.38186297592374896,0.0006725448026895071,0.011455609178609084,-0.005509148437807273
476,0.7633009900409501,-9.87686374593742,0.2936796615853541,-0.00035187035879121853,0.010803563991867052,-0.006663965178097125
477,0.5093166490986388,-10.653320148337508,-0.08964383462550943,-0.002044441942018957,0.010788308050575273,-0.0032896035950047446
478,0.368767606684495,-10.51602401333015,-0.27650907721321516,-0.0012816561705304408,0.012458808245232954,0.002619887175388103
479,0.3952984585438364,-10.048313304580333,0.17324929921898422,-0.002278215537694519,0.011018317180622033,0.000423931183596338
480,0.47497653517598476,-9.967185080471477,0.45788467139721095,-0.0019046236142499715,0.00927895452382232,-0.000935457252609737
481,0.5636275685398354,-9.93437547963017,0.0348792765142516,-2.0898981844659397e-05,0.008806165094421184,0.003047721980516014
482,0.70114124831785,-8.370271598466376,-1.3361015120244313,-7.632188737914955e-05,0.009626421830160792,0.011531199667940487
483,-0.09525074495148225,-8.948916280732771,-0.8914293110131868,-0.0017220473000199713,0.006234027397725602,0.0107840937912407
484,-0.18327276446881394,-9.37583963840845,-0.7162051389939575,-0.0002859677992024975,0.008532943997824914,0.007436523685921861
485,0.06643190746955101,-9.360749941594706,-0.3192628219370066,0.00019897493540763962,0.009064037740361191,0.004027598970221877
486,0.33203023198006815,-9.102721194226339,0.1369704778457004,-0.0010496109470521033,0.006459156289535737,0.0008656865603292399
487,0.3721587791039016,-9.330360076653227,-0.2935881408715856,-0.0010164045283856994,0.006484056543210831,-0.004226347312129696
488,0.36043798078539235,-10.133004526811838,0.022076498638083142,0.0006317205084212777,0.006478863543269019,-0.0034163415103632268
489,0.4486061764981051,-10.318201492340977,0.09889751209903064,0.0004694755418221058,0.007134654047074885,-0.006971688605009217
490,0.7899296207284676,-10.040035631341464,-0.181450489412886,6.424644440647301e-05,0.007588209512307425,-0.009986075902766935
491,1.0957905991164145,-9.605470415537102,-0.5484225507852479,-0.00033920580179363656,0.007796897639467544,-0.010020473182281015
492,0.5814600743951415,-9.47730327910893,-0.30619335776896855,-0.0020263253196650187,0.008647546301963604,-0.007497498260555812
493,0.15889061531967064,-10.020327584222073,-0.18441689715466708,-0.0020612085209461405,0.00436223692437847,-0.004095171211108024
494,0.30286357416531445,-9.822942249258045,-0.11670103132001086,-0.001450582813844233,0.005165388093003119,-0.0025867241237636325
495,0.45790843173558904,-9.554982235229572,-0.12734920794733473,-0.0014637015215982433,0.006032598303128972,0.0011881394855193204
496,0.4236270507577794,-9.610657809474914,-0.18642784298080242,-0.0019216975876316948,0.005358360228488873,0.005701317266613829
497,0.3923072091001567,-10.071379610235436,-0.20446269804230308,-0.0010694845900251278,0.005370138575575935,0.0031653360991875257
498,0.2899666535571951,-9.85814454646779,-0.18237159139758818,0.0005841949159923451,0.006218028882567497,0.004853780870159471
499,0.4302091042712095,-9.630158105973612,-0.12904769291499582,0.0003701957042549287,0.003857216922071329,0.007820224427656071
500,0.5199022201182679,-9.508547988121732,-0.06373984893628278,-5.691634379202505e-05,0.0016850758846046329,0.00869707497299689
501,0.413825841801072,-9.491877939180345,-0.06405250626686619,-3.773866250895103e-05,0.0021066087841677575,0.005749028623055881
502,0.12607479657163256,-9.452634347130827,-0.27032329159218194,6.129917229200915e-06,0.006450204146343064,-0.0010547238421233468
503,0.2214030226253731,-10.024395180026806,-0.3814180538514194,-0.0025103071971644252,0.0013023044198140572,0.0022859858877677898
504,0.26241265379065,-9.656959039260585,-0.19195396675396714,-0.0012484496111998219,0.003226922556779465,-0.0019121679326451226
505,0.43251850774639583,-9.46987182290676,-0.09115739588236722,0.0004324201208544841,0.004969958537855137,-0.0027839357203491353
506,0.5844296413811207,-9.732866249817395,-0.1994639276692826,0.0008389990351425397,0.0032434632470369255,-0.00041047317726806965
507,0.2247408348443215,-9.823942897388555,-0.35662382152123046,4.3315317211845585e-05,-0.0010364050664895847,-0.0063460379195668
508,0.1800140227568585,-10.146984504707497,-0.36877965769594473,2.4784243665395094e-05,0.0015223856255765012,-0.0038273043765784534
509,0.3238330338994871,-9.833571322546176,-0.27360189393885925,0.0006367903752705495,0.0040980090626716115,-0.00191759870666169
510,0.46859354348844773,-9.56934175082186,-0.09912990541387223,0.00021685723416740523,0.0041004350127279016,-0.0010717388585028205
511,0.501282219169099,-9.585143326291416,0.021781826380032624,-0.001032243132722955,0.0017338851728475604,-0.001713236482580877
512,0.38481155800480216,-9.647133060966038,-0.14965564859137429,-0.0010154786355247424,2.2014419212928585e-05,-0.004253290838159406
513,0.3309646576902133,-9.944070108985027,-0.1630675275662857,-0.0001807800798836056,-0.0008406285116206518,-0.004240933558374227
514,0.3013648367241114,-9.883987208862688,-0.20964422247210335,0.000637277636625823,0.000871136456897244,-0.0016902955136000645
515,0.36020207227388645,-9.75472414121582,-0.10755459148947624,-0.00022241740717745607,0.0008515848673771355,0.0016940815462731585
516,0.34848400029399024,-9.268383584434996,0.296328060018314,-0.0016966373864512998,-0.0008807705298396393,0.0044374561222280465
517,-0.11208666617753113,-7.576078412842662,1.1233303754320083,-3.312568700750983e-05,-2.4450243431102293e-05,0.005291683856457547
518,-0.3205593622111047,-9.699746023063813,0.8885291237204975,0.0008403587111907943,0.0008656834644688566,-0.0006417103229826725
519,-0.6828868659314848,-10.09420572024763,1.455943849199841,0.009839752029662668,0.019874393301342125,-0.000794976174400778
520,-0.45665603191111953,-9.454494367917235,1.9971084742142282,0.01774685280265903,0.05569403360360724,-0.0004058763761120588
521,0.15572145900125375,-8.493008325218613,2.084690680222939,0.016833267873457916,0.09612312995603611,0.0013871098680027043
522,0.0396279593916656,-7.944930373346948,1.6809843500950084,0.000932600318452636,0.11856246021551954,0.011196565510777252
523,-0.38123241288268456,-9.352767470371422,0.8731159076690043,-0.005624081524354808,0.15917551049839318,-0.008541888088843902
524,-0.2987649667115518,-10.2443539160693,0.18050547872460343,-0.010369814865665657,0.1873789052420572,-0.016056956484901116
525,0.30267304245044174,-10.296165208288125,0.15062548348707333,-0.011621012975962033,0.21367291206578481,-0.01270683722517465
526,0.7288019780601167,-9.38487278989457,0.8401916274359418,-0.009557675085415974,0.2409950192218593,-0.00821931220573657
527,-0.36848636501496546,-7.611477221742584,1.8297950534866698,-0.006125068762582019,0.26519394018880127,-0.0199899555827347
528,-0.24271762585856071,-10.439136096048735,1.323489782680897,0.0004483246524978827,0.29096887257653486,-0.003875423866668629
529,0.20527201197834,-10.906434546818412,0.7940082053522527,0.005202925898980477,0.3128918770385228,0.0006830338554391758
530,0.20213553364903222,-9.93187627651383,1.0055415417888205,0.006813450497089227,0.3357416200884765,0.004480854829546938
531,-0.07048105098163623,-8.67322155422546,1.6284792646538528,0.005102759937137395,0.36936600896994787,0.006554582869432725
532,0.4335704958955843,-8.511530498129064,1.3301351027035153,0.0009864790725373398,0.4278774022335568,-0.004592312028308152
533,-0.24616794258008134,-8.645977438005612,0.8610660955438473,-0.004076536809004137,0.4649084821262274,0.002857405134863814
534,-0.2223496987692742,-9.552670115853282,-0.2214369689834106,-0.014761452662200854,0.4726015852481418,-0.0005938905575559568
535,0.02177369883384178,-9.953754510660325,-0.972586226333112,-0.02131358772465769,0.46520949078606744,-0.005279315680755759
536,0.250546833361895,-9.491924348574372,-1.1200426904122933,-0.01759697646905919,0.45429394611949536,-0.007083536243872292
537,0.4435548269760234,-8.653575849958855,-0.9904714750695502,-0.0009961029657001596,0.44902036604446205,-0.00688176039416494
538,0.18810236845601075,-8.972271002744673,0.078425172552748,0.0048616873258761255,0.4343708818581452,-0.008458497906365976
539,0.3925832717780562,-9.042393952740127,0.3540753762770055,0.007524815377468878,0.43084124651485867,-0.0068876295432709934
540,0.7699520853319543,-9.214803923312969,0.4412626722335327,0.007036386197521422,0.4299408558870506,-0.0026120848207300657
541,0.9238538626288451,-9.324248997757923,0.5852162795915392,0.004720243664422595,0.4311186710147626,0.0017478840629574612
542,0.37065094221621253,-8.777009391761215,0.7146236022834587,0.002993296569267639,0.440572627011897,0.0017325179690669448
543,-0.07174182119770801,-9.472888816223726,0.3291113716770523,-0.003709659373198153,0.44745706379919536,0.005022867284864051
544,-0.24314641613520854,-9.423402564000213,-0.44674456692185227,-0.01041639958619274,0.4497423924440333,0.008975329164305582
545,-0.11070676115141692,-9.374585294583797,-1.1293569326219146,-0.01238030491019763,0.44752480475988976,0.007117576204303594
546,0.20223787844975707,-9.413981729232493,-1.3574550749615466,-0.00851669023134339,0.443061285745374,0.0006560878211196328
547,0.42840859619364746,-9.076157314847475,-0.8793120433357127,-0.0010118360512141574,0.44042892565090797,-0.002572532681120018
548,0.07165602481225064,-8.778307661154196,0.0605271539821621,0.0039874829651334156,0.4335209354347814,-0.0007917068737222437
549,-0.2122282690812683,-8.999684571891747,0.5125489823519881,0.003265496659455981,0.4305790538387767,-0.0016848118970099336
550,-0.13166401869525896,-9.463090870538668,0.3633755928258777,0.003787922736761473,0.4315300372522841,-0.005124248418842313
551,0.11192049077126189,-9.646186485757262,0.06598817008132146,0.005163640868348856,0.43659138133980163,-0.0088703796560175
552,-0.07830762813415819,-8.858141223951133,0.5202479682228999,0.000924579665781296,0.44596012330277607,-0.008991934565808414
553,0.4781089338146048,-9.49224214305848,-0.28749423525784984,-0.007408805302702318,0.4477036070660916,-0.011644196455379827
554,0.6157020840401622,-9.762882382013553,-0.6529973162159866,-0.00999392986865284,0.44613964497370356,-0.013565892204600626
555,0.35809810119417074,-9.576472825087103,-0.5264524973834301,-0.00825552039338948,0.445767433115125,-0.01173789990734353
556,0.10388714652023447,-9.221206404550896,-0.21031112686041306,-0.004111620791139117,0.44424876288662685,-0.006817213704320609
557,0.5367968367073609,-9.292739161462292,-0.2817526012105513,2.2903279512352555e-05,0.43398294269019694,-0.0025600884715626486
558,0.3058130044823687,-9.300679592882359,0.3013297633599099,0.003363393916445498,0.4296706690012246,-0.0025050713850054327
559,0.0030984732020573474,-9.634656368242219,0.5727835123504452,0.003486990764316786,0.4279973461991635,-0.0005438231842650789
560,-0.05802718798098775,-9.883254319445403,0.5322990291131773,0.00219100446884485,0.43157940088493485,0.0037320596031036853
561,0.0580768851717885,-9.652426966264636,0.24836427766509958,-0.000843936711937793,0.4379368253526773,0.006653072417243311
562,-0.018332496841723805,-8.606237809892901,-0.14019373773999752,-0.007444644968985403,0.44043883739655176,0.0015855925655735544
563,-0.4803001612917082,-8.819285641823761,-0.15832323001853574,-0.01162476858536323,0.43699021243027447,0.002395780512561416
564,-0.18929110545167496,-8.988593097868183,-0.5560367600962502,-0.00807072142578021,0.4362070602686172,-0.0006274545297030873
565,0.18630595401684655,-9.319649107444349,-0.8456356524835064,-0.0048278848774913315,0.43396563784867864,-0.0008537222008250876
566,0.3642886437828246,-9.567470659781346,-0.585889378882076,-0.0031000316645493297,0.4294138888635439,0.000742361652619814
567,0.363860291320147,-9.150175443257286,0.5725121843466289,0.0010452729176764059,0.424272755691841,-0.002549493670412935
568,0.5047995787794642,-8.53109519790407,0.2700851756199733,0.0027271822641461254,0.4199701256850646,-0.0042121394588050445
569,0.3728618043644818,-9.105473238474671,0.4935933637935215,0.0037465655397181307,0.4262916250183464,-0.003300777869620736
570,0.14185746648922573,-9.47463590312632,0.36964893390118614,0.0011047395567264807,0.433083953643739,-0.004758098902684021
571,0.020379667876330516,-9.543363640260942,-0.17023335675767312,-0.004493247587644609,0.43553619905261454,-0.007922517264146667
572,0.23183255818981047,-10.153265949374093,-0.5859215435248741,-0.009351810465132422,0.43295365176110856,-0.00789496452903604
573,0.2553224394330269,-9.63059392395353,-0.9040539906708076,-0.007704052623605833,0.430349633850885,-0.004471545642017783
574,0.46118101358538677,-9.112045566222468,-0.5408230266450643,-0.006064310293516038,0.4284060892374195,0.0002620814653637388
575,0.2956877876255245,-9.145294749834942,-0.22330544046902498,-0.003106517008775626,0.4235018549409355,0.004073649949794266
576,-0.1189655714720733,-9.56982848083575,-0.1444123800472995,0.0006038503721753302,0.41691651337581165,0.005291300966049807
577,-0.1744558165985116,-9.698432351942936,-0.08980918202038658,0.0030437891383500895,0.4135214692593251,0.0028070378972711056
578,-0.41229086418610944,-9.603120438613878,0.5939189798942808,0.0022201897792441124,0.4118069261763836,0.0011061577854134274
579,0.15132071701017327,-8.840649717524077,0.15725541898094736,0.0007483215602661544,0.41677328914806355,-0.0006262183799353074
580,0.07027568722604416,-8.958747466445292,0.09652882565757534,-0.0022220291906105915,0.4232311320052191,-0.003273717022307077
581,-0.44900487771746433,-9.736964044639496,0.193697747818232,-0.006144634588490435,0.4259539048207169,-0.006724861278581634
582,-0.04279032217423412,-9.697320104519758,-0.9256023199140426,-0.009307484100124112,0.4200531103108652,-0.010092116005393382
583,0.274812447135096,-9.45235842705988,-0.9565127826452249,-0.006791774531844793,0.41833507736477354,-0.01175368452776336
584,0.5045825004096713,-9.597092637439209,-0.7594991708197347,-0.0036439608826664477,0.4159346920742566,-0.010767155065077732
585,0.3513875359363348,-9.621693079098739,-0.15663639787654215,-0.0002936430846545916,0.4110802465338661,-0.012145900434016659
586,0.15839838606131915,-9.3989986551791,0.3440184628325068,0.0019024184560704537,0.4049128643121197,-0.01445461041136912
587,0.6698140116947396,-9.085798893968732,-0.18530674643210934,0.001097585872009806,0.4008596407362515,-0.011832542909540552
588,0.32823198861633784,-9.182278356368482,0.24170478532590614,0.001899505453707913,0.40600622218380933,-0.00674835821221267
589,0.30568353873760695,-9.335335498681367,0.011098096946877106,0.00010790505306717863,0.4111607311497987,-0.0030176603895286586
590,0.18356084612189885,-9.515707080921654,-0.35315531885440443,-0.0037312564276782614,0.4135920418333886,-0.0019236495795415091
591,-0.08460914961883326,-9.749142076228237,-0.5552406309017401,-0.008042767629739985,0.4119055663919058,-0.0016306758437916648
592,-0.2825043104692685,-10.060610196448962,-0.45830461422182783,-0.010316136760230538,0.4060146708327599,0.0017055577961711703
593,-0.12639447470703857,-9.323519960474254,-0.26374531307150256,-0.0044817722739208055,0.4051391090174557,0.0034755573351435815
594,0.2356662541178284,-9.069318252402814,-0.4862065003144626,-0.0005859017618434437,0.40091381678293475,0.002583980681899552
595,0.2772642633979232,-9.275764596026594,-0.32651023620686725,0.0023220914927536964,0.39712191739792063,0.0009346648223788785
596,0.1611807952144987,-9.524317628247331,-0.011702963376802211,0.003196453810252925,0.39430416134959984,-0.0014599631582697286
597,0.4770802568268186,-9.15357482425541,-0.40891831228003533,-8.745538724143039e-06,0.3911291219364806,-0.005621173014989482
598,0.2862249717256598,-8.918608528576629,-0.34266713609696364,-3.6159734115015083e-06,0.39544285914078103,-0.006484482039638325
599,0.36349285227830663,-9.654137558930582,-0.8270827395716795,-0.001972478457134778,0.4010980613174135,-0.005383858046912049
600,0.2527090902872017,-9.613433698423519,-0.9500073300799246,-0.004945986650785297,0.4039000323131249,-0.0019219549678676257
601,0.11574640769409358,-8.994803385727032,-0.8273127535671828,-0.0075974034979354715,0.40119591632421225,0.0014627471922755834
602,0.4679952439214713,-9.218127537325541,-1.1794105005268976,-0.008226139080172975,0.39198380583212533,0.0006095937109081555
603,0.11124267254007453,-9.141537574631826,-0.33656630313669456,-0.0032051679709552065,0.39026456796758885,-0.0010218891319077625
604,0.1265551471712642,-9.500380573971576,-0.05432933421569142,0.0011527168651108842,0.38853870795022905,-0.0013292621606169658
605,0.4898898395902292,-9.465900168515754,0.038894654172905406,0.002668349639883905,0.385445376818937,-0.00447923983574521
606,0.784147266800097,-9.183897836963657,0.09024040376158972,0.001378258520886756,0.38115262534940697,-0.007754791666776944
607,0.38507000221700965,-9.392188977575106,0.1293776351216894,-0.0010582609714979573,0.37713846437580745,-0.004406122953581269
608,0.3591332583442881,-9.460541881899495,0.6024371295605543,-0.0010752673626505257,0.3814364118699345,-0.001875011069969119
609,0.1272734000074157,-9.19560384951692,-0.00574384760353247,-0.0017189044696997507,0.38440151647033816,-0.004019399323828079
610,-0.12158418847008622,-9.04482117023679,-0.5814050795667163,-0.004331642499429108,0.3856131234567933,-0.006538344926503251
611,-0.20860407689459382,-9.282582882122995,-0.741622550352757,-0.007306354842562052,0.3848720219521606,-0.006561131106350957
612,0.002207473957098468,-10.005441542367317,-0.5621381479558091,-0.007206579444443121,0.3821672485737266,-0.002371134749351788
613,-0.29826725694575146,-9.697740236237195,-0.21435373877626146,-0.0038826113350674298,0.3769799597374646,0.00023288196277035654
614,-0.16428842277456968,-9.314306406462391,-0.2530450780038729,-0.0012040757775273496,0.3752014805666473,0.0008098753705394552
615,0.07703980988362796,-9.294769658144396,-0.09465412633273743,-0.0005073865700303777,0.37108070585999775,0.002204218740543565
616,0.32477404370217927,-9.508486652648866,0.10812537141402159,-0.0013553316354167468,0.3656721978134937,0.004267270561820569
617,0.5835172426208061,-9.48351944526645,-0.1945779801616837,-0.002161911134924217,0.36404829567187286,0.004943263742309719
618,0.2615101205783382,-9.356766241808238,-0.0768061701393403,-0.0021398558602347736,0.36492665040249833,0.001545860144713225
619,0.20444246352423423,-9.422287371409958,-0.4152123756351735,-0.002126800965727131,0.36852406271049076,-0.0005199009923287719
620,0.14513770885883515,-8.97216950059612,-0.6764694354772949,-0.0025792515541055872,0.36910437875978785,-0.0003887307149828374
621,-0.05685062185859621,-8.54299289837782,-0.6019802784111818,-0.0031605992947553755,0.36476851460455184,-0.0018969643683997336
622,-0.41845800487893264,-9.313258656005415,-0.16996478134931586,-0.003065455097086909,0.356481225813453,-0.010989899577630007
623,0.08510632427253222,-9.57959359938498,-0.8844348100640501,-0.0022027942235118125,0.35477779445375707,-0.015217540543020481
624,0.39791836488319116,-9.486830980763898,-0.5381124188264161,-0.0013879365283247383,0.35508638630247297,-0.012056031073665131
625,0.57518869025042,-9.64364275116429,-0.26366763810332877,-0.0010267160921752876,0.35172173887568564,-0.008790526842362624
626,0.6428096334695358,-9.878002866876074,-0.3856496741623889,-0.0017766931861095984,0.3460783313093052,-0.006336308064628804
627,0.5893002492214802,-9.600554990501832,-0.7191953915418421,-0.004127728538266554,0.3435858073983112,-0.0020008313684188954
628,-0.13203485395572012,-9.309213169110041,-0.3275765680553241,-0.0025023484714728488,0.34355126735797425,0.00480806875291422
629,-0.04926786843861537,-9.639653417567967,-0.024082326427911957,-0.003489375797117538,0.34354851863012836,0.005519873356072898
630,-0.04194936587043859,-9.93156445321419,0.10135206621200235,-0.0042471435807905,0.3435510190132209,0.0051244145262491
631,-0.24234751592358542,-10.02749545722208,-0.03341340791210071,-0.004488523064171212,0.34253736375294375,0.0043735911476819956
632,-0.3465255417316432,-10.021256438127834,-0.4522677094323605,-0.0051922336689980446,0.3392204820469015,0.0018304340189040332
633,0.08314353600891425,-9.32783949900855,-0.29705812542137,-0.0035058980252242944,0.33836983401459275,-0.0006925503172386703
634,0.4672320079392843,-9.302201755634613,-0.3524329163751856,-0.0024440500091059475,0.33274599921571035,-0.009286742788235767
635,0.5850145486496086,-9.456303515809235,-0.12906640024199373,-0.0006659684815537397,0.33105379149459135,-0.01387739176406781
636,0.6037615792990785,-9.62823270905242,0.08603236036556688,0.0008340055432429955,0.3313243523773442,-0.01184369114733238
637,0.8714867635527798,-9.810013995424146,-0.34597747429443915,-2.8661783852945447e-06,0.3263669420367299,-0.005369890616509501
638,0.8064002176080257,-9.685145880374655,-0.2631832787048721,-2.8661783852945447e-06,0.3263669420367299,-0.0053698906165095
639,0.6214262453215591,-9.534420068453635,-0.23411670197700096,-0.0020017100696546972,0.32292955477397733,-0.005382009021162525
640,0.1755438147007068,-9.481045855066755,-0.04157794149699208,-0.003156935936864569,0.3200205951405122,-0.001662154900086234
641,-0.09602531199745198,-9.312749635922295,-0.012950995409327065,-0.0034456957677600365,0.31878247097258705,0.004366763903732354
642,0.4312354376113968,-8.733344564805366,-0.6441338334362473,-0.004139577000692399,0.3188501430905543,0.00805607421457318
643,-0.10120187056824607,-9.288629784860547,0.0029812432441629066,-0.001590204910375253,0.3206056476333606,0.0012913526989345502
644,0.18957544231202095,-8.956761716168842,-0.2958234296849342,-0.0030527753032775465,0.31822386422953397,-0.00482855981545375
645,0.22060253105853184,-8.818772276606193,-0.3904032167857855,-0.0041645554802576396,0.3152620016636853,-0.007035396953575726
646,-0.007345552711814985,-9.113038349454705,-0.3256454279573292,-0.004412588210576948,0.3116409281364841,-0.007453386675753947
647,0.054033399185900936,-9.601762771208971,-0.682846646669985,-0.004969316928592945,0.3061537377204152,-0.010574385312709366
648,0.24586742933886063,-9.708889823207752,-0.21358536832721253,-0.0008058719326409977,0.31045167231540927,-0.008842332840858346
649,0.806541209980224,-9.75006164975285,-0.7555343572997263,-0.0006627457447446637,0.30438312153770736,-0.006441779025380189
650,0.8883789777534739,-9.823448033350934,-0.7959071789866861,-0.0010618768668343348,0.30002878278974243,-0.00247913173371913
651,0.5389546228413663,-9.755582414636898,-0.4499782455217891,-0.0018651817243141747,0.2986115627937451,0.0044068835965061955
652,0.27894827015225704,-9.28883327963496,-0.6303234465826596,-0.004349086225869647,0.2960232228223511,0.014785818168757204
653,0.34697105125241373,-9.124096110268704,-1.0397709139679854,-0.005178218180734691,0.2943037218352098,0.013933347624971053
654,0.4031943020955205,-9.28578040239486,-0.8461265058307845,-0.003287904395243065,0.29260939828873544,0.007656146841202708
655,0.04348569051006704,-9.178796860651035,-0.36187862752936045,-0.0021337871357484423,0.29186830141803227,0.001915779738260553
656,-0.3025776287509607,-8.810631522079525,-0.08333732335317898,-0.002372221645292396,0.2913550479866094,-0.0005183933773474769
657,0.1384727825193913,-8.522070129731631,-0.4929917728934227,-0.0029834407414935553,0.2897212145925909,0.0005223002342671009
658,0.5397582537577251,-8.851865361406599,-0.14238022859931954,0.00042305962663955366,0.2897683298715014,-0.009621652678690973
659,0.005087964320168392,-9.311092632019474,-0.05194079044598221,-0.0015694348413073014,0.2835567936803905,-0.017073342704211552
660,0.007148434914096419,-9.47373476607228,-0.06296734492254269,-0.0026046918276103935,0.2791422816557734,-0.01442089244579618
661,0.4484971247069053,-9.403255730089397,-0.13445111153233036,-0.0013172971532326258,0.27842946791923107,-0.005259569969815352
662,0.497238137453838,-9.413051675373994,-0.2636842283484135,0.0009564640427078829,0.2795310667778796,0.0010212426636770431
663,0.38908680922985966,-9.682531187014899,-0.24203524366240428,0.00013904762581782982,0.27092420197278394,-0.001504993319723042
664,0.1386679453176876,-9.190102387096452,0.10395993055172537,-0.0013987592520164772,0.2720296066146026,0.0027801169813570638
665,-0.05991093487256588,-9.354536908938094,-0.039428151935553934,-0.004027190716810228,0.27113097366405653,0.0067977611795462176
666,-0.22122006917113052,-9.853171862814502,-0.40291919456379793,-0.0055478282132560425,0.26736619092185193,0.004363754272078132
667,-0.41278440068497513,-9.583106575234487,-0.25369898879964997,-0.0031060770352138727,0.2646886812791114,-0.00847551366976249
668,0.009054716641130556,-8.846915251341846,-0.10498781405197857,-0.0030945279044142285,0.2595248252856628,-0.010154442265932328
669,0.09735863753513133,-9.235569424464389,0.0710366840314462,-0.0010870354638180056,0.26061572741729583,-0.007022886711026238
670,0.07947075787348562,-9.523967961273572,-0.08970235732557119,-0.0004424370377305541,0.26031239715472365,-0.008473251626083863
671,0.09861834579029523,-9.673633462010603,-0.41788959201809184,-0.0015062747144872868,0.2580175523802819,-0.013101573208513958
672,0.2711888400158479,-10.065730206822888,-0.5053484420697367,-0.0030668296374451827,0.25645872421968385,-0.01434688271608925
673,0.7957961877810844,-9.119555354821626,-0.38461531354862927,-0.0031056441386497565,0.257291434977795,-0.008410218590969434
674,0.5513031134317711,-9.15700312312335,-0.46468167655170833,-0.0038347554618354597,0.25251971541438867,-0.00039595893382937414
675,0.37572414550051825,-9.113110684158688,-0.25614203192848173,-0.002360213101591997,0.24791003872130318,0.0052635854775237145
676,0.25716223815091926,-9.039546595781715,0.25415031819452727,-7.999095383192635e-05,0.2452553214943331,0.007899563855358008
677,-0.11629423234220118,-9.385345235700024,0.7532159605372405,-0.0002423891727902755,0.24417330284688638,0.008696535484996746
678,0.18124426340524627,-9.019434638094461,-0.23864409710285206,-0.002747247683282026,0.23986572846523044,0.008681349262019904
679,0.19143218499553108,-8.959120455967069,-0.2779599849910785,-0.003215239680493913,0.24186540169867626,0.00866881744149087
680,0.04929230862261915,-9.41444140563812,0.023879795059278508,-0.003648256947893152,0.23999636634396504,0.002928921269322083
681,-0.04787627785095923,-9.798067860053076,0.22820532280256772,-0.003634405950317307,0.23454995258647812,-0.0064359070542243345
682,0.09345755393987727,-9.322466374312503,0.01760010821398422,-0.0019195451152755544,0.2306622700309465,-0.01327086524857959
683,0.15560786472922902,-9.563373838393636,-0.12529782893157662,-0.0002769392529158238,0.23236450036773193,-0.009013935229709573
684,0.5305172939130165,-9.430221360422182,-0.15466758703061034,0.0007075736861766945,0.22846231284189433,-0.00820442318370551
685,0.44816681426724636,-9.346487329473684,-0.05290773405373589,0.0005919393090955844,0.22572376767462587,-0.007236017309077346
686,0.10800918097771939,-9.30235147130218,0.03161655125856744,-0.0005268160725801004,0.22512046761200158,-0.00420825348010585
687,0.07790394761714634,-9.140874994533034,-0.09791260922985758,-0.002233331212551951,0.22480761578711586,0.001317399278795384
688,-0.08603584855949001,-9.258932272731,-0.25148626265967355,-0.0039025799347702675,0.22049936962570943,0.0013122488246214753
689,0.036325840022742216,-8.96951945450775,-0.4661821830933894,-0.003507546051182534,0.2183154459114452,-0.0014498364027163073
690,0.026683141758092305,-9.001417358252514,-0.518091800886932,-0.0036264264875688723,0.2175652896260658,-0.0005082549403568055
691,-0.08831578274524621,-9.399364226251398,-0.409511569680472,-0.0036763110849029517,0.21508922100007283,0.00131418217954369
692,-0.09535513175817063,-9.853411683279838,-0.24294897693495596,-0.0019235425858097062,0.20776270333837596,-0.0024993116109325456
693,0.08130835009187629,-9.56178442536557,-0.04715366827140003,0.0006482879610162102,0.2060861649908432,-0.012646531671550275
694,0.3822190168993873,-9.038165978946074,0.03336073328524476,0.00041639811524662665,0.20647951507950457,-0.012409264515281428
695,0.4458344009278927,-9.29246212329593,0.049968282977602335,-0.0009295616547146971,0.20387985226738012,-0.006970618419620399
696,0.3370138764290313,-9.891370774381608,-0.015269379919140767,-0.0020990977553686863,0.2006138089562099,-0.0017788560580786275
697,0.29223378926942256,-9.861518290438354,-0.16348326501202598,-0.0020987599060924406,0.2011723092974329,-0.0018406003662877076
698,0.31523429798674174,-9.45045964247318,0.07405857498298506,-0.0020928995396066316,0.19772862933622226,-0.002677881399132424
699,0.4330436372401379,-8.98488036295735,0.24907238452668834,-0.003471378574235838,0.1949839185676746,-0.0014433597956175416
700,0.2770931043626965,-9.192728221480586,0.5534897141563514,-0.004175700285671124,0.19240706090841098,-0.0031397160542192856
701,0.08629976291955135,-9.638741895686566,0.5803583397988364,-0.0036102762060569796,0.18873155263770464,-0.0073635687021346135
702,0.30042519771739046,-9.507087890837186,-0.1571747805640495,-0.0019759641297780817,0.18308888378514562,-0.01107709305453669
703,0.6811570228678664,-9.421904812989439,-0.2994869223508804,-0.0011568769447486903,0.1822140060185376,-0.008518060458189126
704,0.4925172932709818,-9.685644371814265,0.10710209871201679,0.0003664947202000419,0.18347945381840156,-0.008751153612392492
705,0.32351922399534394,-9.626448957245863,0.2499262075222869,0.00011789875212895511,0.18174139146864507,-0.008137321606612088
706,0.3372376968398514,-9.189444507169098,-0.07709350415623947,-0.0013050712727576959,0.1790895963352636,-0.004524557663597865
707,0.47911249768846287,-8.671105462275365,-0.7198895447758944,-0.0020611058995178063,0.17966255571389625,0.002283619603981643
708,0.21778756885764544,-9.261706057504396,-0.46796937499806557,-0.0012031183365112852,0.17709240606425874,-0.0010918258615299015
709,0.05897761322328166,-9.664521977152276,-0.6006734148639649,-0.0017279392119974924,0.17380922335689347,-0.0037816573168474635
710,-0.1000031375527332,-9.359123235728003,-0.4972674861560181,-0.0030550252254637183,0.17035341397295675,-0.0019380523452102796
711,-0.18450930471884636,-8.949451434362818,-0.2756336620522973,-0.003929181576067279,0.1660485719375242,0.0012235617146147551
712,-0.08948927425502476,-9.351901248663586,-0.303663436245005,-0.0028945092230515455,0.16028287598570404,-4.57724754527178e-05
713,-0.09438299951402884,-9.829332048532805,-0.4343392991273026,0.0004900918875740081,0.15772812091841462,-0.006785565382108272
714,0.17216774892656925,-9.715696144251917,-0.5560688775106831,0.0010491805245431936,0.15940175481160765,-0.003752030991973618
715,0.31150004492506855,-9.221076038477094,-0.6259390869560961,-0.00043631019044243176,0.15996914153559524,0.002299846557698661
716,0.3064456098956538,-8.847390672415283,-0.7469168519061044,-0.002970923492097344,0.15823987866140116,0.006840491648862725
717,0.2511040747032053,-9.127036995244403,-0.988369520408811,-0.005145741147781106,0.15506558809022855,0.006295261151197747
718,-0.16877755251934418,-9.625742295259304,-0.5261343260725229,-0.0034318175578724047,0.15509744353231306,-0.0004735335525927984
719,0.19917326712073985,-9.304526793094357,-0.29832028841172875,-0.0038520642830176736,0.14937283084423297,0.0018928609959423459
720,0.35723702662220436,-9.29719851007162,-0.23713152752593436,-0.00276090201349078,0.14496534362847202,0.0032161149226506147
721,0.2643486479644993,-9.575793119469353,-0.33503507232810675,-0.00023704777238258172,0.14182305824922742,0.0004512651902466255
722,0.23553098070401216,-9.698353977046066,-0.5459373208519053,0.0019081095208120019,0.1376798489095738,-0.005686991741024582
723,0.47189791071390885,-9.562081213782628,-0.34294227919148446,-0.0006024428733038485,0.1350916375041903,-0.004859730976580954
724,0.5562685694186279,-9.723529503323729,-0.07713682093935992,-0.00034416329297247894,0.1367930472579427,-0.003309436249946415
725,0.4882150348344191,-9.91980068653402,-0.15117072216255031,-8.66107473581572e-06,0.13736513713128823,-0.001117098223634184
726,0.4814834865845664,-9.777257027997805,-0.605848739176194,-0.0008554266806728667,0.1359201224011243,0.0014239027736141282
727,0.734947874621698,-9.073000616221954,-1.2284049186156674,-0.003239336451717712,0.13332417950092912,0.0038113847144609064
728,0.5382201192097343,-9.310548549492658,-0.8777026370143558,-0.004079453143384544,0.13073462516623208,0.00465870760209309
729,0.09097696954461791,-9.447086515422214,-0.4252528079747453,-0.0021116570451391458,0.12744625367456203,0.0013040761702062973
730,-0.14258939660532824,-9.368036547870734,-0.4203190992121142,-0.0010548267127816798,0.12501079132133225,-0.0004448038016051828
731,-0.14993017893198737,-9.243149586870864,-0.5982789890683745,-0.0013350448042452902,0.12328558117764729,-0.0001593866141833172
732,-0.0853469787744448,-9.351435163642924,-0.4624410563860462,-0.0021027344689915376,0.12141645644523061,0.00018848802465917206
733,-0.04766529428011847,-9.955707986727406,-0.22075094663378741,-0.002069210745278119,0.11799352020285955,-0.004890826858442077
734,0.2080363436857308,-9.701344063375583,-0.11644520415256301,-0.0006560464723331504,0.11599698302054862,-0.007834932491805486
735,0.47585068038810024,-9.312380554671464,-0.28676228604509246,-0.0004727143147162308,0.11476022520322209,-0.0044194482277683
736,0.5912534105363161,-9.204644750962117,-0.5239885703448407,-0.0007901072943556325,0.11386690734724957,0.0020797952578798357
737,0.4251169459950004,-9.582284619227105,-0.5136072135880264,-5.061253387077925e-05,0.11269101566480902,0.005754584741634608
738,0.011107789083255853,-9.728939299836728,-0.1616633328148664,-3.360614271820134e-05,0.10839306817068203,0.0032234728580224567
739,0.007129084603794411,-9.222148855673527,-0.3933135815079004,-0.001408922250705006,0.10554226203502744,-3.883868055918e-05
740,0.07313550369828678,-8.954569496754425,-0.4803474473451077,-0.003079294876472348,0.10346298948786022,3.8982245347891e-05
741,0.08681705053912378,-9.091595865199269,-0.39523115525674407,-0.0039060420359507053,0.10144753268390218,0.000292908453477937
742,0.040803888768869284,-9.502648947888403,-0.3818629692529886,-0.0029681152451747064,0.09865638391519853,-0.004227471517664025
743,0.29527760223704685,-9.780371895499401,-0.9051602326955713,-0.0012473913975006438,0.09352104315031148,-0.011826781431175012
744,0.4878191201662108,-9.78160363042616,-0.5980526293030142,0.00039349169222566675,0.09193780130051005,-0.007347956570077075
745,0.38583269727362346,-9.878558393324948,-0.35003194517594016,0.0015345602008900996,0.09104645093917993,-0.0015406911702174073
746,0.3113353619444616,-9.72358279158508,-0.3896437548990788,0.001206210043511167,0.08957678799518595,0.0032648417890458322
747,0.614914734437827,-8.972343014161142,-0.6447152619039284,-0.0011021839350632045,0.0872805915888387,0.007488152618006825
748,0.3031844354392259,-9.217794513208442,-0.43045002172369445,-0.0011299331690632092,0.08812240899491772,0.011728000405004334
749,0.14191013097312866,-9.47641505775207,-0.53949743135618,-0.001082897755381314,0.0846746157546335,0.004577360019503201
750,0.015069627679834871,-9.520367521068945,-0.5146578784155468,-0.001524848087144129,0.08040338873992692,-0.0032451139745971616
751,0.019053133106036742,-9.425070302340256,-0.3027989179831853,-0.0020555017507028045,0.07728466709803888,-0.006268225940166082
752,0.25082403619591365,-9.3778151094522,0.008662836220083684,-0.001772985684449876,0.07616883316952282,-0.0027163655782390748
753,0.3105274843557553,-9.589713747358445,0.32137672759573566,0.0015903441012700378,0.07273491358098903,-0.006058742674860595
754,0.4077244717099936,-9.825196560929623,0.035809526471758335,0.002852942053277196,0.07076075060348869,-0.010860074275160949
755,0.5006544263205555,-9.560323759776178,-0.05053128276658958,0.001706189765402484,0.07107820409116719,-0.01043658792684402
756,0.5686898363378765,-9.196823730630257,-0.1405417451320274,-0.0005594631522621305,0.07099588193838605,-0.003310365509326892
757,0.5788872279918935,-9.332539909835866,-0.5830723470907064,-0.0020714222024095725,0.0678947328700603,0.008302980012405679
758,0.34594590566333083,-9.688104522431267,-0.3913263351744263,-0.0012414256916710791,0.06875166820656203,0.009158442659944444
759,0.3285654626971627,-9.389293957092521,-0.41158528918950343,-0.0017790310582933228,0.06309523328570626,0.0035749869383821927
760,0.2655689082440406,-9.17747199310153,-0.5124790657082786,-0.001606236061056161,0.05774690999524351,0.0013459889339940813
761,0.0871727359818509,-9.266220951172135,-0.46128310773372005,-0.0010526182886334975,0.05552124586228123,0.0004534964297413632
762,-0.15362859283062905,-9.619808197097333,-0.11284873878754997,-0.0011831442824561454,0.05669237159339381,-0.003957676303656801
763,0.04212041752956005,-9.627612987837512,-0.1962748237888043,-0.0028144377886605856,0.05241317505961714,-0.009903276814759263
764,0.22793614377475077,-9.237456963294534,0.2387676209850073,-0.0016437987288903094,0.050300646554670814,-0.012233455139227023
765,0.3991020058393845,-9.45778237215896,-0.10653881697955497,-0.0004835404682775056,0.049594451115234764,-0.010372402445840805
766,0.5868542248042464,-9.769051015103612,-0.603046048469266,0.00031797228521763404,0.04837333393547634,-0.005232694462430678
767,0.7769665605303866,-9.373136580451472,-0.2984039336795838,0.0009449658672443376,0.044974300928414056,0.0018232927255216972
768,0.5464721008313257,-8.912989687805732,-0.2760304263128626,4.950687613243305e-05,0.042343247469436816,0.011157073191892658
769,0.1952644973112208,-9.087644274553892,-0.48684001307819785,-0.0015028693250730373,0.041943572664758524,0.012561970005765075
770,-0.12611998342594946,-9.600469701792754,-0.5751052928620637,-0.001627614991516937,0.03785390027635324,0.005467763900371548
771,-0.18445484237215856,-9.64669855040328,-0.4926401602831945,-0.0016011765977600881,0.03250862618668064,-0.004323715185083935
772,0.15552841689081875,-8.741562679236216,-0.31124890834672186,-0.0028265766213193214,0.03045937515209448,-0.009094121533225542
773,0.2362748836643751,-9.670827715479922,-0.2538399264014627,-0.00036029079376460654,0.03301439271180089,-0.0031333315111832486
774,0.19562037592762727,-10.286002821573335,-0.5442278174678756,3.939612909288862e-05,0.02829365730257572,-0.006544298446919066
775,0.40186376226324777,-9.97364443038882,-0.5719089910937747,0.0005837704292418295,0.02539525649636523,-0.013147120667556968
776,0.6578318411721147,-9.237693218027577,-0.37648020381991637,0.0008250312053021077,0.024527009600549543,-0.011854774318810669
777,0.6124870563734479,-8.923779224116851,-0.1950705422996295,4.830462678922797e-05,0.023582837400330712,0.005103644112887471
778,0.01545257477487097,-9.767705951639488,-0.2532379006120756,0.0008223361761634895,0.02267476252269906,0.014451514707381288
779,0.02095432603869687,-9.374709238375058,-0.7272642993156346,-0.0004558344964364831,0.01962578662497921,0.011497151217517243
780,0.11623423557705244,-9.01991660315615,-0.7801703086618839,-0.002601673021999266,0.016718510805982426,0.007411043723723119
781,0.0985911816543528,-9.011568438269755,-0.5560403198992219,-0.0036093487262875757,0.015064741328192245,0.003411972422795354
782,-0.055243749921389695,-9.332327908552172,-0.42655127054924397,-0.0015609372717847038,0.014823155761359898,-0.0019162665956536928
783,0.25012470624042343,-9.662645316472043,-0.33099101953999877,0.003499637483417857,0.012270401243627183,-0.009485197977226389
784,0.43981057040227217,-9.598153198204649,-0.2479383442816056,0.0014012150541920588,0.0052853975706351015,-0.012054251687071943
785,0.28189415680926794,-9.870932229796331,-0.3703386339803466,4.601574444894936e-05,0.0021892341187583395,-0.007094632635700352
786,0.14656112047786762,-9.977461480778157,-0.45457008177388686,0.0008651443362302185,0.0009149734047554434,0.0034579245044160244
787,0.40695949284423216,-9.338785278482955,-0.24127411524889086,0.002590807333491494,-0.0019621661434335753,0.01568485483413635
788,0.3501922798397926,-9.058049358958314,-0.1562619038290431,-0.001634936312538936,0.0005899211202699641,0.02326301594401952
789,-0.35115987088452166,-9.245161310602843,-0.19967390235703447,-0.001479279341796182,-0.0026883332916314796,0.01639675009455253
790,-0.40708978001015567,-9.213327357724438,-0.3613864201847916,-0.0010686701766496564,-0.0048488277711380735,0.003989350515963693
791,-0.022597035594090847,-8.957391389423584,-0.4400580847425928,-0.0007046141772887863,-0.006582285460615597,-0.006194638469437646
792,0.2246238829771866,-8.757056974045017,-0.2852864998885786,0.0005934149749228923,-0.009926274540368794,-0.008804227107415238
793,0.08759957572505411,-9.477423744646003,-0.3830003499396511,0.005626315982905977,-0.01249978056800945,-0.012129531386581885
794,-0.037259329842279885,-10.358371152534579,-0.027994701282991002,0.004226422047826968,-0.018755227353885233,-0.016974651895452896
795,0.2743908928698302,-10.32920796192256,0.13767565864554313,0.0027089489043042,-0.018860856501279215,-0.012801620669136801
796,0.6903774322261,-9.642281368100097,-0.01907132797745298,0.0008860541877385525,-0.01585241393219236,0.0009978242963080489
797,0.721845674306829,-8.994090609530389,-0.34703596260356206,-0.0022120576453856506,-0.015733866014288073,0.01939246707707568
798,0.18842962107545674,-9.442188112603752,0.14768595140033572,-0.0022281771424967787,-0.02091766046167774,0.021956366159217658
799,-0.08305756294393829,-9.10661135917716,0.34698978324441876,-0.0014696938095180101,-0.022357472513776677,0.015766712007021615
800,-0.08785289695358275,-8.878649470935496,0.1304835079942029,-0.0011000855424186224,-0.02581464787810502,0.009179510114769184
801,0.010639224593116104,-8.930981788110932,-0.24991414046993715,0.0007548783702911515,-0.029708227878279383,0.0014410768779815107
802,0.03901794722204483,-9.242335987255686,-0.48183109305042043,0.005006008701194461,-0.031763054076515536,-0.009533218538735134
803,0.07523151413866234,-9.79203188654721,-0.5397220150544934,0.0025739601796690914,-0.03687843569725916,-0.02057788997094487
804,0.20203888580472687,-9.616482606681311,-0.2553650668414618,0.0029451317019068093,-0.03611302118788601,-0.020647518339311846
805,0.3234173172269824,-9.723183563353897,-0.23758568096703836,0.0017028813080885222,-0.038103914173904914,-0.015325451679419658
806,0.34560991512638134,-10.071658899312755,-0.19066658971635808,5.09144296613232e-05,-0.0405805964072006,-0.00708444797563143
807,0.2989850548630621,-10.234734734455452,0.15349221495033194,-0.00020034554273259408,-0.04034781085610033,0.002628952656627532
808,0.9116794572904542,-9.100215301780388,-0.40558479974753725,-0.0019533889907184334,-0.044718303125973656,0.015353080843110416
809,0.519718601524128,-8.900323359471818,0.22546598397321477,-0.000780744522764911,-0.0460835958382051,0.02151101661658444
810,0.035438796282633994,-9.1896722603205,0.19424882825697815,0.000928152418767605,-0.0500908521327994,0.015705064174848384
811,-0.23746409931138307,-9.403880282664428,-0.15840217719100588,0.001164581347482313,-0.05543394022417575,0.0026875491908557435
812,-0.14218764360392488,-9.135365460883937,-0.16769777059419003,-0.0009760306394882052,-0.05879676596269349,-0.00925493151328003
813,0.5165077762579346,-9.053044159146102,-0.42899257644121186,-0.0009818858866638125,-0.055352272945517346,-0.008418449904530596
814,0.5145310857793672,-9.672577509173616,-0.3423458721431947,0.0019206538060560971,-0.057860899341823646,-0.010462333263299595
815,0.21448678060154483,-9.910502071309539,-0.01793299178405705,0.0032328127310358363,-0.06341153260738172,-0.014539817744722334
816,0.052044275280165565,-9.808490279544106,0.12704222711520363,0.0029185250941177725,-0.06779142470066513,-0.013100954360637372
817,0.306982042300288,-9.64799298410111,-0.1804275790875085,0.0018064408403778507,-0.06785284068029936,-0.0003847296373631695
818,0.3162801202923946,-9.475407469647944,-0.05171918848275017,-0.0007818316279159093,-0.06791307334007632,0.012314469940133261
819,0.23819888585377225,-9.590946441995044,-0.42975565717767883,-0.002588875711714104,-0.0686776663207963,0.016198430695894765
820,0.25693886394169596,-9.447854768963765,-0.6732151059248224,-0.0032138278514117547,-0.07165645880409778,0.014033061836560667
821,0.24417345968885584,-9.200122580427932,-0.5909181455395811,-0.002564051150741132,-0.07467227668022242,0.008647449940759791
822,0.0873869325474693,-9.146585751251225,-0.24761647994572955,-0.0008529163891184759,-0.07560680896015229,0.0024294665969410685
823,0.13730293018931758,-9.474525915906526,-0.44572772197919164,0.0008722390265431619,-0.07729097301547042,-0.006030975692377795
824,0.2824427572907621,-9.712313924355591,-0.4632087579907693,0.0011422666496632122,-0.07972616535597876,-0.013768565756599
825,0.40713354682352976,-9.592172931217739,-0.22477645298484014,0.00011067335491743446,-0.08337715301344938,-0.014050000406545273
826,0.4660736879010551,-9.570500894683052,-0.07905923900937292,-0.00036230952130732966,-0.0861218490012405,-0.00823442538890382
827,0.4231611627972986,-10.050770841756309,-0.30342303828779027,0.0012561019312304494,-0.08636880678136019,-0.0003387986102114457
828,0.1877729778392343,-10.332091313572501,-0.32381586414253155,0.002904563040765548,-0.08811106946175117,0.003081649799908484
829,0.2689335110759933,-9.516200202455083,-0.22885279407967293,0.0001814349273049885,-0.09135751580739011,0.007932121201061664
830,0.16160184969163255,-8.892123207390743,-0.11257380156937649,-0.0011243472422438798,-0.09108693543650613,0.014061447050592375
831,-0.04799071207552262,-8.93708593368402,-0.04715719286603394,-0.0008235847622337895,-0.09010928976212815,0.01549070800889082
832,-0.1223745261096014,-9.671937107369743,-0.10093681280798093,-3.6527995007865385e-05,-0.09263451281158337,0.007249797124988296
833,0.2715703572401736,-9.863570287489086,-0.36238635881809095,4.728914461383366e-05,-0.10119225215442569,-0.005449683622867538
834,0.40377876537063995,-9.397634679961557,-0.5344771169422415,6.30143333336876e-05,-0.1045361110373314,-0.007801329668384042
835,0.42975296842623,-9.372587402854723,-0.49468751140451955,5.140138481230872e-05,-0.10551990278042896,-0.0060031870236871235
836,0.3246657185910577,-9.775562730142529,-0.3779960655508605,0.0006718745846019842,-0.10745430886442917,-0.005446746624882683
837,0.11220859851307592,-10.256643042207877,-0.35218179831236235,0.001954340057713978,-0.11228706486378112,-0.009342283174462512
838,0.20714686853776765,-10.067804595614641,-0.45376546395590733,0.0002952167871067722,-0.11486349729189047,-0.011051012991862919
839,0.3055084287013488,-9.606815501155735,-0.14223740083662587,-0.001436919409535996,-0.11297178962721713,-0.0016440932526561487
840,0.23127781690403038,-9.391919182174988,-0.1653455453212414,-0.0010708744606931192,-0.11311794100188156,0.006211326913452221
841,0.13874691566754122,-9.449328158413932,-0.36353206793254483,0.0005818187156701162,-0.11550401863367885,0.00899432605866282
842,0.15399163116153985,-9.604780638633612,-0.4495032930728272,0.0019530959642471083,-0.11872412767097958,0.006583216753503592
843,-0.07160910327857815,-9.272471123052906,-0.4659598324826483,0.001128718001726287,-0.12043947538863183,0.004881533399173329
844,-0.3259425350826613,-9.233596955539747,-0.5997444875374933,0.0003002445977467446,-0.12291292626917728,0.003926639877902552
845,-0.2742202852103619,-9.42495838129556,-0.4169561738916402,0.0005488440758893946,-0.12439102081387743,-0.0017015196284034285
846,-0.0009278657328220252,-9.578107935709705,-0.014792727364493913,0.001743966888792525,-0.12587077089946216,-0.008567925064372671
847,0.32187276514501256,-9.507052421734869,0.3174274912054342,0.0031137784600890708,-0.12844284145440243,-0.011484669445132037
848,0.5665590280951307,-9.602853845548779,-0.06482955596499168,0.002240455349756139,-0.13105729604277372,-0.005545312685042833
849,0.3337583875518626,-9.787329094199693,0.1301164863599016,0.001371165686128045,-0.13215375434013776,-0.00035699583609132067
850,0.18151122295816183,-10.139853119657328,-0.16039463214873817,0.0005309616010164102,-0.13518705026340316,0.00046699567108940225
851,0.2656841687827798,-10.061906281315494,-0.42717265680839034,1.7832842912509043e-05,-0.13916638198552542,-0.0002571605822596795
852,0.5848159427674021,-9.234156055676237,-0.24957812870663731,0.00011439899820823514,-0.14251155629274045,0.001594447119885642
853,0.8353746760284442,-9.115087868504613,-1.0201403229133446,0.000894124506893003,-0.14513980330707674,0.010099873524978818
854,0.38171249878660063,-9.53285882088624,-0.7757586746896747,0.0017228230842065487,-0.1431793086082077,0.011120299346336546
855,0.06267640358250276,-9.545541636680731,-0.47300937027068246,0.0010308444633632004,-0.14761960564976306,0.0030995381316668335
856,0.047265957442485705,-9.408484538122426,-0.3947287692051338,5.529767072011293e-05,-0.15389549824274706,-0.00573951974560508
857,0.2999885088559096,-9.476736241533882,-0.5428798370660002,0.00017463775034798186,-0.1557941599984665,-0.007161043508987793
858,0.5153124202521177,-9.50272727370671,-0.28081573586944975,0.0009704826804574097,-0.15323780340497983,-0.0012195189840573074
859,0.25884166277599296,-9.756557440208416,-0.5966011783808162,-0.00040319499772815915,-0.1559733097643069,-0.001274926018406298
860,0.19372470063444153,-9.926945556980982,-0.5699154756526079,-0.0004651838514821695,-0.16103935095281013,-0.004790782608833789
861,0.2342563825445992,-9.823266120748494,-0.29424753503407725,0.0003798162680588963,-0.16409488336183153,-0.006286405773486441
862,0.22559920550527515,-9.469939023567084,-0.03754529928303874,0.0011832338348338324,-0.16251059027398837,-0.0014726573729250737
863,0.338644258988254,-9.670020189535032,0.04239919976159644,0.001963420717572686,-0.1616910053179993,0.00702085608330111
864,0.20987369536585124,-9.626349081003111,-0.18177779055273244,0.00132069635460794,-0.16692466351066837,0.007266049258448888
865,0.22136359098315928,-9.160381199944098,-0.11314899904636003,-0.0005718222520741353,-0.1707677999027466,0.006946446091767448
866,0.25360098706000367,-8.78939612357603,0.028607213988317698,-0.00147380866357166,-0.1733563485657621,0.007597734463854533
867,0.17082392437779564,-8.998854433196492,-0.017214509308815587,0.000301080934007127,-0.1759504714524894,0.008980303582813362
868,0.1532065134453787,-9.65083858918654,-0.050743500536132656,0.002812117116031969,-0.178534413528091,0.008170927762302462
869,0.057988836521028084,-9.909089934291234,0.011364038792676553,0.0008992546549165546,-0.18186716268500663,0.005055439566298158
870,0.0025996071441788298,-9.809033784355272,-0.04992299354870584,-0.0005206713643453648,-0.1841999672841763,0.001651821973518914
871,0.1608217256494039,-9.521354133291084,-0.14741498212440324,-0.000706662662476599,-0.18525447483944002,0.0012130754505460131
872,0.5075573102106528,-9.279597534090106,-0.22279261374312698,0.0002213724911874373,-0.18598158565888415,0.004537629161666264
873,0.19484826616025056,-9.444412479075588,-0.571070220927421,0.0019088951908785646,-0.19114263194234554,0.0020295592925578107
874,-0.0027299376223024613,-9.972368659821413,-0.6927456515094416,0.001400928673250972,-0.19474896644988454,-0.005030431955665913
875,0.27027078832417856,-9.86916232772931,-0.693647445680662,0.0021793761722359328,-0.19543591610867916,-0.007240047999393862
876,0.652583371728515,-9.396222517004658,-0.6456389961567669,0.002519786430774585,-0.19593826731222502,-0.002426597932653232
877,0.7233213010289188,-9.026298542399124,-0.5311745060565811,0.0011349895547179156,-0.19845079376402147,0.007298870929785777
878,0.3176314770575357,-9.157216556166599,0.026337876319815316,0.001959695212278738,-0.20018327475134767,0.009011680021322292
879,0.25067582226894247,-9.421012065891961,0.1761756062959978,0.0028184517040632075,-0.20495814395855874,0.005450634977512379
880,0.2529733202096097,-9.647763731167169,-0.15646397636544784,0.002073785267132492,-0.206800530429985,0.0017481291541916468
881,0.26944369805611923,-9.671180508365985,-0.5273336205397592,0.0010629037384314824,-0.20679446116196115,0.0006620991598480446
882,0.26161040429417837,-9.445796904118856,-0.5905438146315616,0.0010494138063612977,-0.20668283856913472,0.0027285440538548163
883,0.11675613662766952,-9.35094712425673,-0.7232088597311178,0.00105487099102778,-0.2058161209093809,0.00187635796839273
884,0.4858938085043873,-9.954290175067591,-0.5354865713702838,0.0003513211099540525,-0.21337757747448988,-0.00425133535387521
885,0.612101905376716,-9.925966859207183,-0.22856909941244719,0.0006264123145515311,-0.22086273395017292,-0.009921352510427061
886,0.44049923513756944,-9.59862108245871,-0.016687228475243034,0.0024629917006372074,-0.22402423199073185,-0.012648122783966468
887,0.17503902573702768,-9.468741647327073,-0.08529383348831529,0.004955059815461233,-0.22218886830748139,-0.01080497801989379
888,0.5298341070148705,-9.591059235032336,-0.5386269860369783,0.002401019533885357,-0.22481027808426335,-0.003188860428469959
889,0.1906961608476878,-9.996965228879635,-0.618206836991121,-0.00010943635917725443,-0.22508762361342247,-0.002404730065352953
890,0.1725661097324286,-9.759241358250385,-0.719433301330219,6.662354931910103e-05,-0.22342770691553293,-0.0013150412960672507
891,0.2754939246013703,-9.431395690526294,-0.7796252647429074,0.0010513446460474196,-0.22392258011154398,0.0027393546938365818
892,0.23343777725900647,-9.507146167647345,-0.7224982757959069,0.0011271763287089573,-0.22937898672613455,0.009781829936442605
893,0.26084263870942564,-9.388640600042688,-0.6762261456124258,0.0019412952362907576,-0.23629192257751444,0.013210134138089807
894,0.20674307228150218,-9.076882689970319,0.021977615573843423,0.004293849079640703,-0.23776971230714264,0.009799122894379187
895,0.06568346174844483,-9.311051609907977,0.1913620985902107,0.002515528159112196,-0.2397203249021147,0.004992886467942553
896,-0.022782472716147865,-9.716724163071953,-0.14093658943435372,0.00036633444142285433,-0.24159132316388826,-0.0011277326709995784
897,0.04808450595893432,-9.854940328494498,-0.6069778309701893,0.0011211195883961,-0.2422952350152429,-0.0076323080674794
898,0.20370496919528477,-9.679358175007678,-0.3457648145274252,0.0011211195883961,-0.2422952350152429,-0.0076323080674794
899,0.2605210000111051,-9.809123880154429,-0.29873062523306604,0.0018564764998621483,-0.24694816108778309,-0.005322625225047039
900,0.31744541603155463,-9.327541123651239,-0.4491828212382039,0.0026644977504969736,-0.24990795137685268,-0.0011075927357696647
901,0.1285532186572223,-9.129184607710817,-0.3756330343466372,0.0018234880209112118,-0.2537013213307542,0.000944945446307827
902,-0.31833115416925223,-9.77726890965686,0.013649240346554625,-0.0007599136628194804,-0.2596891239569675,-0.0007276327079078792
903,-0.06287869564920531,-9.78308797033707,-0.5397476483122677,0.0008876776958457787,-0.2605688248822534,0.0026906202245353867
904,0.09707949019331398,-9.659830129867744,-0.3721118515438293,0.002510807808505211,-0.2583667340033281,0.00991278801650341
905,0.30007273910352616,-9.312207079806413,-0.3118542066934523,0.0014473357692175344,-0.26027586563883265,0.01313320285134311
906,0.33403400875059946,-9.107880602985212,-0.43755002375616825,0.000282345800785143,-0.2628573222874495,0.012618064375760763
907,0.14048056850162005,-9.254486986699671,-0.5990075382293241,0.0012597306209466087,-0.2633651571207104,0.010085502431939102
908,0.3372083239135574,-9.212630957913028,-0.24810532502381616,0.0029470868377755813,-0.2668018864192326,0.007572266608255491
909,0.4990970212876727,-9.172115265575835,-0.32253346431453267,0.0039013813327726313,-0.27022377784538004,0.0019903681014482237
910,0.04010959715424728,-9.429274218428908,-0.17351261880342428,0.0025842801720222246,-0.27309050514114597,-0.0017442877258399467
911,-0.21607016868930506,-9.689525934951803,-0.04347957537945487,0.0011054809839177804,-0.27566077551590235,-0.0046405069216763194
912,0.21323500163506692,-9.724959827621959,-0.12157477168487976,0.001376812093224439,-0.27797177950831115,-0.00711739450638614
913,0.050763323036109906,-9.799748077370747,-0.0063693811492686984,0.0030307251924298227,-0.27884732842448245,-0.004548335555652252
914,0.08406915803369905,-9.460641021925024,-0.4277730125243187,0.001697598523327729,-0.2796986959854458,-0.006613951656654898
915,0.08977590995465326,-9.684454445459654,-0.751731627112044,0.00167075317202585,-0.2799931974615947,-0.007495393862900835
916,0.15057785447665772,-9.805887289609553,-0.8709658007356462,0.0014761433814180947,-0.2817476332988389,-0.004748658629197999
917,0.3395886317977941,-9.475771428440993,-0.8419154342640709,0.0001523565637170439,-0.28648636928392124,0.001516624378841263
918,0.5774236793854239,-10.100139847360206,-0.9905330516246758,0.0009656915972011473,-0.29339930450511553,0.004944919166072077
919,0.45210478695753953,-9.878297811779449,0.010071519698161835,0.0047969922116539165,-0.2956384795559998,0.00916113076155847
920,0.37846751822575775,-9.73515939960204,0.02025090285525405,0.004040480119457585,-0.295106199571024,0.010056020433957057
921,0.27476582183752485,-9.644196744435437,-0.22109911385051184,0.001049173003776529,-0.2937220899462468,0.00847770306378793
922,0.11277821254772405,-9.514979548871493,0.026947336457567486,-0.0009127793242253989,-0.2932474050223196,0.005242671583097599
923,0.2463769121185173,-9.46281813394796,0.2898368402652526,-3.352043631386892e-05,-0.29493839015071194,-0.001530189692446781
924,0.44699026038560397,-9.425796210878712,-0.32836534482732194,0.0007909704680723121,-0.30136133190278086,0.00017883651771778046
925,0.5605489123483175,-9.216467026033879,-0.32620518770796975,0.002158873573012963,-0.305437588607593,0.002755525478863934
926,0.3962199819737571,-9.08583784739893,-0.23856804475321414,0.0031428943228743855,-0.3073255262948409,0.0035892033465131047
927,-0.008992266268236975,-9.282680111462728,-0.5262533275605839,0.0027609035346210687,-0.3080402824721366,0.001352061078522765
928,0.07224357303124142,-9.913490253407103,-0.6091964584175744,0.0002888431416658483,-0.30801337203511886,-0.0037692646454358884
929,-0.07244880355614255,-9.904936922606586,-0.46961727580287804,0.0008271059244563865,-0.30800775376941775,-0.004998983876809816
930,-0.02203815317412095,-9.79519704923458,-0.09556753821032449,0.001106618511099204,-0.31312631609959696,-0.004148035106331698
931,0.08237053221089707,-9.618794478358632,0.1992833028345091,0.0017829755426676912,-0.3205377803139293,-0.002764564363452649
932,0.02402239628169541,-9.448481445214977,0.23242143108920826,0.003307409679807501,-0.3260629646960691,-0.000790726691822367
933,-0.4452858560568581,-9.668906933447756,0.319567486743552,0.004092264678118512,-0.3243766653456723,0.006851387890601827
934,-0.1805664867622236,-9.719836582748236,0.247865206432539,0.0018858270631413815,-0.3242204764651203,0.006732988221776386
935,0.4107683737958094,-9.582415450356631,-0.21699939361752005,-6.522482585568647e-05,-0.32250815743244443,0.006415902277071778
936,0.5326546109871557,-9.775160247138764,-0.46761479608185397,-0.0006925937656288636,-0.3213328488040121,0.004657581133959315
937,-0.007915803811442024,-10.349824737289843,-0.21574780461564788,3.830240917944716e-05,-0.32315007237006993,-0.00012086113195874861
938,0.45894558589748374,-9.809802695369545,-0.37854063865313975,8.875184226966003e-05,-0.3300083910861154,-0.007734270588007229
939,0.7025017224298391,-10.675703410524164,-0.15348780503423182,0.0023647289429250106,-0.3345538877216032,-0.006035665420775277
940,0.9688090008782754,-10.382164862444268,-0.4521530628778743,0.0031849008963637884,-0.3354530088351147,-0.002351056247662465
941,1.0800412488801712,-9.607711826524518,-0.44691020831819933,0.002821007934695309,-0.3342484606759974,0.00048003726416106585
942,0.8243861855320769,-9.288938824512238,0.2103699188325288,0.0014289137570237128,-0.3339446985464608,0.0018676254815914151
943,-0.018313304068537622,-10.0164135348301,-0.06455597214867556,-0.0027738071141875827,-0.3408577543536696,0.006084150083725487
