,acc_x,acc_y,acc_z,gyr_x,gyr_y,gyr_z
0,0.15811780777796902,-9.376814705190212,-0.2859873052501727,-0.0007713899303915436,0.0002776751512327775,-0.0007986740756879069
1,0.16996509586858194,-9.39475661716516,-0.29051191127406595,-0.00046988737611278875,-0.000577799378780172,-0.0016552880531801536
2,0.18405768658290306,-9.389072611601431,-0.2579198453957048,-0.00035935772639409774,-0.0006939772858027089,-0.0014019325951973003
3,0.173586287582961,-9.358236283111774,-0.19245008743090042,-0.0010465894945392749,-0.00014475140819425618,-6.901737130257824e-06
4,0.19379430855532584,-9.385485467955506,-0.10634946164887746,-0.0010549584360420212,-0.0009960864107305708,-1.107247018643346e-05
5,0.19246002669192042,-9.372332765901863,-0.18924054874846344,-0.001055521047155,-0.0010533183238868,-1.1352852211556028e-05
6,0.24708431528327804,-9.380167302918643,-0.22550281631204327,-0.001055521047155,-0.0010533183238868,-1.1352852211556028e-05
7,0.24834418107341072,-9.388184690050876,-0.2541942842519652,-0.00105189490866194,-0.0006844474670199929,-9.545735305037669e-06
8,0.17298076621906597,-9.378517777553775,-0.2809840972693848,-0.0007391050695155138,7.70089263365801e-06,0.00015234920045331115
9,0.22253853193700837,-9.353649148834394,-0.18457827444821712,0.0009278642104826692,-8.273221296065437e-06,0.0010158611220271948
10,0.17460037380573573,-9.37386489211561,-0.25141080793314863,-0.0005183865944120525,5.585807424828391e-06,0.0002666842616031213
11,0.14147242184623246,-9.400923734249236,-0.1922967794089922,-0.001629072564100379,-0.0011488036773054401,-1.5213360541646016e-05
12,0.1482594344005817,-9.40109788962539,-0.1377595934363361,-0.0021083950848221392,-0.0017375371096687979,-2.09032818367153e-05
13,0.19245842859583168,-9.369003841425783,-0.1826964993114558,-0.0021000197354872764,-0.0008855502670156861,-1.6729355382976453e-05
14,0.22998761040165477,-9.358750613829653,-0.27526431460983886,-0.0020916507939846094,-3.421526447930716e-05,-1.255862232680053e-05
15,0.24412812989406635,-9.389022538281314,-0.25080788426756084,0.0002547735739272432,-2.5921477710559134e-06,1.4969807049187903e-06
16,0.3242097782841551,-9.404390230137363,-0.22993269629630353,0.0004816704961769107,0.0005777101153027485,-0.000579206330926334
17,0.34822007812443656,-9.399593648506663,-0.22643136303652203,0.00037894767026524557,0.0010593988515930528,-0.0006879018413372055
18,0.2612623064588278,-9.380928899409302,-0.22927191939271,0.0008993147273343535,0.001055090635152809,0.00016887295527708512
19,0.1833170827082775,-9.369790975303815,-0.1917700581341768,5.762213471392931e-05,0.0010646404489255837,0.0010176446572881922
20,0.2260452811692176,-9.40366776218486,-0.20611162011618528,0.0007783585103337,0.00026057633019908877,0.0010727955253430925
21,0.21300491903020097,-9.38823560614783,-0.1802456489876607,0.0004625071902555648,-0.0005883068529451936,0.0004810850627531525
22,0.19543820107575618,-9.358160302885441,-0.180596992009143,-1.0459037451042914e-05,-0.0010639511187929,-5.212350118442849e-06
23,0.20367730620021998,-9.351405654032675,-0.2402608381101439,0.00014973139132305765,-0.0007480004889964974,-0.0001620437810449806
24,0.18491271529731076,-9.393777888064813,-0.29811271824421226,0.001008161866948794,0.0009451197023031446,-0.0010024740169436892
25,0.29146106110367676,-9.379037009506119,-0.21192142900302335,0.0010777438954637439,0.0010490871947503,-0.0034556471803705077
26,0.30892640312710934,-9.365875066664781,-0.2534061957923944,0.0004892772541619957,-0.00011455153563399615,-0.0030931413529835597
27,0.28282413628035047,-9.363275959131416,-0.29945879256562313,-0.00035998595979083514,-0.00031721743357381136,-0.001391378711632143
28,0.2555477457692641,-9.366702025713012,-0.26276663801841366,-0.0010377435190169547,0.0007551101323997516,-2.493270120026271e-06
29,0.21849970731993051,-9.351150727092643,-0.19079310477417732,-0.0010544814020223665,-0.0009475598726727446,-1.0834736232377085e-05
30,0.17603657340704465,-9.36208812666323,-0.13842276362344386,0.0005157563903784269,-0.00026984445597165625,0.0008024351702081095
31,0.12891057818290885,-9.389524712569543,-0.18571709156659058,0.0010382234480344,-9.330763900480248e-06,0.0010730286526021
32,0.09776319919718998,-9.400791268618882,-0.23602378168567362,0.0006679570894897901,-0.0003788244288776579,0.0010690461841721104
33,0.1066484158915666,-9.380382096813838,-0.2255517136976339,-1.4686461391596434e-05,-0.0009022382061115013,0.0009014118401126764
34,0.1889239298504762,-9.349645788389434,-0.1826898378082394,-8.455514746911783e-07,-5.194504144727652e-05,5.189746463688564e-05
35,0.2020817012748462,-9.40170286501301,-0.27613901916305184,1.02801877073621e-05,-1.9573009333856793e-06,-0.0016038183144308396
36,0.18653642258401024,-9.392058752904543,-0.26185020571010525,-0.0011469910929545826,1.0563687963703636e-05,-0.0009643415081676581
37,0.18290735923657664,-9.374174069631103,-0.22324788016827046,-0.001726985243484737,-0.00035656059799031754,-1.1958396666381494e-05
38,0.21799040736167025,-9.37929217510539,-0.22947173658438666,-0.0008969099189326066,-0.0010549320842001152,-1.0420896063694e-05
39,0.29401105768627683,-9.362679944691697,-0.2730713073969391,-6.068929472643397e-05,-0.0010634400601009463,-5.507489542776651e-06
40,0.26194588265007934,-9.417998250233701,-0.177237026315101,-0.0007991797476830768,-0.0018578816686386388,-0.0008161602941760765
41,0.2561811814720706,-9.39152754710096,-0.19016147871670425,-0.000479997484118982,-0.0015365910689054342,-0.0004879830356623294
42,0.23840953935800002,-9.347958886192133,-0.22123694508969383,-3.0869525343164746e-06,-0.00031402187992156903,-1.5384090059135893e-06
43,0.18736359112448908,-9.344465674003764,-0.21566266734902817,1.0459037451042912e-05,0.0010639511187929,5.212350118442849e-06
44,0.14021154218896711,-9.39416286110428,-0.24147088251741297,1.0459037451042914e-05,0.0010639511187929,5.212350118442849e-06
45,0.19266096071929262,-9.388808452350572,-0.3164549626261257,5.3101648689108175e-06,0.0010649314406894865,0.0008084910820797301
46,0.205133066909725,-9.386429229555525,-0.2596738318588711,-0.0005726037253293543,0.0004812424171538035,-0.00011432992752345277
47,0.19334268938291624,-9.393588231685328,-0.2159196122537323,-0.0014077327578076683,1.3090269719504206e-05,-0.0010751997895002237
48,0.2231065265601812,-9.399250735748252,-0.25044366345588603,-0.0017634736148900204,1.670969090022172e-05,-0.0010772900266892613
49,0.44731933068214685,-9.363049396556901,-0.2241673959295937,-9.024718279279997e-05,-3.1424961124754195e-07,-0.001067458600120169
50,0.620317603704241,-9.37274966099215,-0.28155613310639527,-0.000786016437666666,7.693673196700883e-06,-0.00026736479348432807
51,0.821802202928746,-9.386938072651144,-0.2918347817796001,-0.0016358318661306363,1.869208239266668e-05,0.001763855857453549
52,1.1133598189718004,-9.383063430821126,-0.26547915722742327,-0.0017582157268581857,2.4642547866556117e-05,0.005836484122179078
53,1.4821327372409705,-9.353731307262574,-0.26561524549888627,-0.0009649497445449847,2.4427172354091233e-05,0.012641667410562805
54,1.7732244679143057,-9.31699152520908,-0.44740440665846143,-0.0001944081553047468,2.8424185671554592e-05,0.02289320686625275
55,2.3238428573200864,-9.370038931994339,-0.3649118894833233,-0.00025644422095829207,-0.000755485235661138,0.03877286405882854
56,2.7300421424452415,-9.357081624080028,-0.33873412213455123,-0.0009558877698387107,-0.00039712555771985675,0.05795475837621822
57,3.2595860135643258,-9.335472805287376,-0.3744905706988705,-0.0004629569507555043,-0.0002779001585712419,0.08223953873550655
58,4.023460445993918,-9.31295684491325,-0.496470797656016,0.0015225719189151364,-0.0007845015221169946,0.11260596659935901
59,4.748543484216669,-9.166823330318852,-0.8208624664597061,0.0021372822932438753,0.00010209345590835043,0.1484786427021624
60,5.54130380212214,-9.385573377943306,-0.43114964411687895,0.0018771772236444648,0.00020779761126579955,0.19643423332981053
61,6.154017253533157,-9.2982191149246,-0.47200016553687013,0.0021135762769498986,0.0008595883170340406,0.25104122984593924
62,6.937636309502239,-9.049469627223353,-0.46183991732179264,0.002914726729149748,0.0010194318980669727,0.31471290321008893
63,7.93721050446324,-8.771777446924258,-0.327694477840007,0.0041063767599987845,0.0004072829684461135,0.38877522189222463
64,8.528054546226638,-8.462645711704793,-1.0201583987667473,0.005242431515857802,0.0004923925626379701,0.4724670304802057
65,8.128103089782297,-8.948896031835023,-0.5784518187832268,0.007861788608240371,0.0021929346768579886,0.5739295130270641
66,5.169521546915463,-9.066607446863998,-0.0641738691922102,0.008799524987952972,0.002822918879074276,0.6781900280305576
67,1.3522409865600624,-9.141630752036713,0.19046665364002136,0.008244041718770918,0.0021846789769178663,0.7778895904944965
68,-1.9941145936853668,-9.190439480775161,-0.04932740375186809,0.0070408116508873676,0.0009200991027211191,0.8585807701930437
69,-4.619232746667006,-8.42077347331809,-0.9780052811984455,0.006849246514403521,0.0009565722325041044,0.888466963232022
70,-5.81549717667794,-8.43581059784717,-0.513621876586984,0.006158973124140627,0.00013849290156650823,0.8714898675705437
71,-5.647807350097112,-9.00481666042704,-0.2095747940050953,0.006706158168018307,0.0010222969146935557,0.838775733996091
72,-4.795531553193353,-9.249637297252601,-0.15208948775482894,0.009099481706690903,0.0018633490967734944,0.7721480342021222
73,-3.896928577182387,-8.974646694134698,-0.260824696226449,0.012547014315256847,0.0015530099568265886,0.6789543588291691
74,-3.4427292486606866,-9.340910201804627,-0.329751623599009,0.013752524302513716,0.0006212625566955702,0.6200364005332158
75,-0.8559198216171471,-9.265168796099886,-0.22879265809317353,0.010224343349992088,0.003774026629452847,0.5643443367509583
76,1.1665699046672666,-9.145229781393915,-0.2889816851958865,0.006215045558422827,0.0018420407093208834,0.53441205007058
77,2.0736314987413444,-9.030532463265448,-0.38968599137316606,0.00279718211381706,0.0006634795583598087,0.5301242973222172
78,1.9654258071942745,-8.997585369977699,-0.442628256216012,0.000538372481187501,0.0027541101135052904,0.5458110682789703
79,1.8379228177257747,-9.227486733205065,-0.4697668752515282,-0.0004510992246060236,0.0027917963975821777,0.5697149489871797
80,2.552980436149839,-8.820180636297252,-0.5739638783968468,0.002386651380600352,0.002005924450299396,0.6138782211762354
81,1.3676139009552948,-8.857223876729934,-0.5373285257593359,0.007199644979459959,0.0005595252204916274,0.6561761338463258
82,-0.7895030793075312,-9.133893804967327,-0.31515285432872314,0.01204703667923195,0.00038125474243389093,0.6960432656727509
83,-2.4536147630893708,-9.270178352134026,-0.012187122720783053,0.01487517966401649,0.002092609553660109,0.7282113251551936
84,-1.4831486130594242,-8.679342527952693,0.007802597175625086,0.013174912949775132,0.0038214395343122215,0.7350409231436975
85,-1.5178129356170005,-8.739002928376927,0.12593504733807787,0.01064716782395754,0.0015156724260431955,0.7410357993952283
86,-2.4927029360226864,-8.897543021520672,-0.3523219701434018,0.008151317564618163,0.00017269210585517188,0.7368389656890727
87,-3.4202033391564313,-8.99592025331415,-0.47491316764700664,0.004994134489159315,-0.0002833899630334442,0.7198316131088711
88,-3.3328763835190682,-8.992831251999919,0.06796655990328292,0.0021588391097571357,5.4687568455395454e-05,0.6928325553787227
89,-1.2822433981804047,-9.01315914609872,0.2651492502590508,0.004012218397589318,0.00170907865955481,0.6672337577438208
90,-1.0963738283052087,-9.374938893615251,0.07664354442056655,0.0057852821111274285,0.0009476472767166648,0.6505478479954984
91,-1.669516761706274,-9.283181343892899,-0.13450648400955542,0.00929792702980865,0.0006415466118048787,0.6373329514094783
92,-1.7014931343563284,-9.082168996483588,-0.24937312015473717,0.011654676884067839,0.001375980892455102,0.6292437874189677
93,-0.6603676336057703,-8.994805471101607,-0.3211063584098307,0.010834246397351796,0.0024015973279156834,0.6277155701245926
94,0.6541160163108445,-8.911510665840723,-0.6930492859165238,0.00659729829657323,0.0007479706370747481,0.6336600520204144
95,-0.7169134314609455,-8.95949212381595,-0.10628355777718489,0.007104998958332653,-0.00013674754533806558,0.6453221322143234
96,-1.5109729281141882,-9.17041265269385,-0.20881349445354086,0.006687176839550649,0.00022570957407389835,0.6584742410535749
97,-1.608934081036692,-9.060026982158787,-0.41670310420742973,0.006149323496794232,0.0003278896206302563,0.6709769497908991
98,-1.1994634663810995,-8.653395907716114,-0.44231513091019836,0.006078124951292097,-0.00033923671179590746,0.6810393765312716
99,-0.6644320539698854,-8.936342167931459,-0.7501098273836653,0.006039810896395636,-0.00033194189018905776,0.6870167754555195
100,-2.825131105616567,-8.923272608409833,-0.189662991415673,0.006855077513191843,-0.00034366362550677015,0.6840548712646835
101,-2.9300030384310514,-9.17957169290261,-0.13608187092006138,0.008892632648282332,0.0008292195301650338,0.6818563644245543
102,-1.981955770714102,-9.31238861453603,0.1801375524613765,0.010288459453094211,0.000972300719120909,0.6786111511631474
103,-1.3838113768730969,-9.115099140059836,0.5928850068910398,0.009801948849419404,-0.0003864839678552971,0.6729584565240071
104,-2.752183082716015,-8.77923969554246,-0.9689334134994383,0.007341764922839522,-0.00037033152704534286,0.6652581409673441
105,-3.218414051162272,-8.991247817153347,-0.5114040446012669,0.004902747085039154,0.0012678564194677428,0.6567527867738555
106,-2.1365321107444646,-9.027245273387727,-0.7047977098230798,0.0036167177386428684,0.0023789918667406077,0.6512152328855014
107,-1.0477675791543652,-8.933139644176077,-0.7808114831478319,0.003556238722175845,0.0020685512242570327,0.6481060887987582
108,-1.1344241552762817,-8.80455496881379,-0.2866050818290941,0.004552414408765322,0.0005278561408033444,0.6474415362488287
109,-2.862209948413575,-8.750870901201694,0.39609170904477853,0.006195378887704561,-0.0003363344725050046,0.6508627389587317
110,-2.429789609765549,-8.889257301243923,0.0367651419658402,0.007060826286318426,0.00043137583581076566,0.6534725815237246
111,-1.249419549133227,-8.906358035804306,-0.28977356425474765,0.007877202916111482,7.779283265370207e-05,0.6560376459813231
112,-1.1190369298846448,-8.827895909930131,-0.20751036715951476,0.0083196282740989,-0.00038932423173940005,0.657434880670287
113,-2.484705676646772,-8.703709020508972,0.15090899530857893,0.008319166930480192,0.0001355158967650374,0.6583127001622647
114,-3.513390172811385,-8.592035097816296,-0.15907187452192184,0.00831691663307976,0.002695530447574383,0.6625944434025363
115,-2.6856618723556744,-8.607760463057822,0.1434663784358814,0.006719182777293442,0.0028262943481773234,0.6627765778791671
116,-2.1661386807856,-8.546285419095938,-0.19084770188832154,0.006203062853746827,0.00042762195363451954,0.6627619083713039
117,-2.5393801330495114,-8.684549330162005,-0.4594453141991103,0.005438501075907997,-0.0010327258773652496,0.6608044122631284
118,-3.5648876094995345,-8.989434882947286,-0.30427420013992035,0.004320376727469325,0.00017698954139315053,0.6567101757689899
119,-3.754939235311072,-8.857639435408554,-0.0966189337060132,0.005203605046000058,0.0027191176189512102,0.6533120632744706
120,-2.6120409458983405,-8.69082797067012,-0.06806262717391856,0.006815823360132135,0.0011869245542915656,0.6547977077438613
121,-2.4151552530009925,-8.502552706187021,0.04137630800308901,0.006703779294248252,-0.0005163899931796198,0.6540834668704122
122,-3.223535482901239,-8.432138811488977,-0.03352722935010399,0.006651185216247793,0.00011277040062508204,0.651988430480127
123,-4.202777920330852,-8.510272024117661,-0.33417642898497363,0.007005643842930324,0.002632126621446432,0.6499712614206348
124,-3.1630271269670875,-8.582987745093737,-0.4914127873596654,0.0053240406111695025,0.001797016183832323,0.6499572553448283
125,-1.782427984187326,-8.331042756983496,0.03177413826982603,0.006032581733823029,0.001757207655032802,0.6532311160895011
126,-2.438140850671387,-8.501990772402987,-0.5215368193285477,0.006251357585631919,0.0005526508816782354,0.6554335414431656
127,-3.8066820787406024,-8.83509220370964,-0.6681270348242507,0.006624348713504848,0.0004067478704503606,0.6567519848587606
128,-4.3431262542706595,-8.98547284091093,-0.02749107762239803,0.007299505709337119,0.0019260909980697463,0.6570845934315139
129,-2.3213618703210894,-8.524307722955768,-0.2855620620027512,0.007318831583827732,0.002776140722199841,0.6553805962814256
130,-2.9587489228426143,-8.416999552348035,-0.056676678382503995,0.007308832659205334,0.001178058091365304,0.6544834876208296
131,-3.6537793200709423,-8.2636212026659,-0.17149389427165623,0.006726695566668167,0.0012891543011096039,0.6530213606831801
132,-3.726240114376405,-8.242899382207668,0.012290926443629474,0.006668327056119583,0.0017494271184677447,0.6520988345801007
133,-3.168333156746262,-8.388334341081428,0.3996428102755483,0.0069797430966917606,0.0013895680707276745,0.6515633917422636
134,-2.896968303688805,-8.4577476168114,-0.444370839157693,0.005306194686831843,-0.00029920350744928913,0.648984163523986
135,-4.057455225539597,-8.627286964876905,-0.24247768343349035,0.006054455854639558,0.0004397321928459524,0.6480683033684871
136,-4.165886375920901,-8.675832844733417,-0.2445597967689952,0.005135655711242819,0.0012974140257338857,0.6453950731236645
137,-3.2591836174162347,-8.625904605968799,-0.1384639829995284,0.005007499736497903,0.0009738284958323731,0.6439404553179766
138,-2.4573918381306097,-8.442321225610142,0.1450493076686861,0.006487305451991133,-0.00038547566216064243,0.644616967209138
139,-4.521496837450851,-7.96483198940122,0.16930059132664702,0.007323526076197433,-0.0003939836380614743,0.6446218806156588
140,-5.971495037761215,-9.294075388435218,-0.40454710658210435,0.006574892640061696,0.0012480648566315512,0.6438055029165248
141,-9.4825504079371,-8.954634217272423,0.12005853345679596,0.005801056232449006,0.00234489673043866,0.6356706338403111
142,-12.499753678833422,-8.194490044049303,0.3072273749062647,0.005924628362442197,0.001983233005391607,0.6056775305419643
143,-13.926083542851892,-7.959188863552983,-0.1835872930858872,0.006920247843719403,0.00182737751261743,0.5532326959215832
144,-15.279539804643779,-8.421299244993826,0.2657178039605289,0.00732366750662996,0.007722668865339315,0.49946611014937464
145,-15.543634623239328,-8.738868938226393,0.04141392156857372,0.0043177873347532494,0.007800751752486253,0.34138872128798803
146,-14.11220751478955,-8.795733948721102,0.036128535298616586,0.0018790844420336437,0.00397549903509453,0.1566250996517343
147,-11.709944838837542,-8.868957784941212,-0.15930756558675327,-0.00045074548487951047,0.0018499210770263129,-0.004895462137558836
148,-9.38430315830344,-9.002952844781035,-0.5185629283610409,-0.003009331116313142,0.0030786561651426274,-0.12564348310845921
149,-8.647672679525053,-8.84512552520143,-0.23240256659162362,-0.0056544121478552915,0.0029793075492906794,-0.23496208903707472
150,-7.7267419896049985,-8.588286095343259,-0.23592942875180875,-0.006984741799990342,-0.00036444249591909667,-0.30319673951416276
151,-8.281672003454956,-8.490419948468718,0.10473416994103915,-0.006485279107091796,-0.002027643033618743,-0.3655475365891431
152,-8.791886075372737,-8.665517279857482,-0.005815835965853583,-0.006825117388340733,-0.0021546482202227206,-0.42380687796512984
153,-8.9087549709737,-8.935662140946219,-0.5226340851610005,-0.00879554467597679,-0.0017098758505111292,-0.47932196932223525
154,-10.325241012465103,-8.668975459681976,0.006649164347681074,-0.010120597431154897,-0.0026127303687894414,-0.5348391297375428
155,-9.06050843191429,-8.248240595700484,-0.771017313092968,-0.009752124809573761,-0.0010808251341391604,-0.5993843946095163
156,-6.9042527698122225,-8.348879044371339,-0.5442349937808363,-0.00809085096736236,-0.0006934009925920574,-0.6715841727019201
157,-4.611547513072317,-8.500987117672022,-0.1382799254814094,-0.006763494911750195,-0.0007845566936855206,-0.7387982247454421
158,-2.5482606366341978,-8.488782694826636,-0.02508438044566772,-0.00697218861432837,-0.0004761074200354409,-0.7895477506476596
159,-0.562100861064511,-8.552004940867103,0.04675791510691827,-0.009311638847878207,0.0012237155688627655,-0.813462944213186
160,0.6026906818451221,-8.749689116065296,0.1700849412109278,-0.011023927641740322,-0.00034243412796649793,-0.8143301022858047
161,0.9149928783557598,-8.736864346402156,-0.3834671372313041,-0.012379379799741339,-0.0013745313191825916,-0.7722308871558818
162,-0.08996940211152515,-8.671177908023177,-0.6021049820899065,-0.012427507087215725,-0.0021591476202975713,-0.7145056417447966
163,-1.9847454074104327,-8.608635119677036,-0.22421534664768944,-0.010920889867259366,-0.0025983390866059462,-0.661264683077975
164,-2.9744572916999084,-8.418544936940636,-0.21293774140550856,-0.008671259257568686,-0.001720673851895949,-0.6194047727081723
165,-3.5730249426082454,-8.175035029000352,-0.28796661099120574,-0.0063874411944787185,-0.0016737897095130644,-0.5841442752483017
166,-3.943754758801989,-8.50409212090525,-0.2116756369611134,-0.005105982241816555,-0.001070868982257309,-0.5784603944644804
167,-4.6699144597954465,-8.622382554567094,-0.24692989988497374,-0.005006347909035152,-0.0006241352820259413,-0.5844352322033961
168,-5.704226489141886,-8.36908809080829,-0.31842783305840655,-0.005780194208325599,-0.0008119902318005232,-0.5944809582492611
169,-6.026592537986738,-8.591836655013065,0.19658319151823803,-0.00646684590771768,-0.0016850294157742354,-0.6192525262256251
170,-4.060062022508908,-8.565771169438241,-0.08878132539120233,-0.007952867516499186,-0.0017270233251925132,-0.6440255822942944
171,-3.3216464341502654,-8.26547663192653,-0.1864356670293909,-0.01004690999159439,-0.0017378589886788793,-0.671862285602473
172,-3.1175912914897133,-8.483954492634272,-0.1386060486330194,-0.011596338847533541,-0.0009575915297841509,-0.6985081253814233
173,-2.939021795329969,-9.172074093922417,-0.017314575358320483,-0.012110672143076113,0.0003575758623020309,-0.7183325167673646
174,-2.7792822009769984,-8.987913732401397,0.12048825779746176,-0.0120778300565939,0.0003513228785671252,-0.72345623058308
175,-1.7699579546632118,-8.558143174941776,0.1767269165991372,-0.008884861689618464,-0.0004984584004723376,-0.7178241799033112
176,-1.01360257691127,-8.541116809044288,-0.014048513912802083,-0.00741465090416207,-0.001352975557473047,-0.7075513214921383
177,-1.1750255530587976,-8.678146078345858,-0.47304527205021946,-0.007834899909839908,-0.00138836883163937,-0.6947996377116654
178,-2.095142610745497,-8.810749518499865,-0.7491647417835392,-0.00903944552018859,-0.0003224340072727671,-0.6807660893478009
179,-2.4473395476924082,-8.974122842013545,0.3302417689748563,-0.008285000276264233,0.0013912853704413342,-0.665382490694102
180,-1.9164326918604049,-8.669965559219126,-0.1767332730398009,-0.007547083857940194,-0.00019786050558669036,-0.6524971552565481
181,-2.1799978503169886,-8.558801803564371,-0.6478234891930146,-0.007361503198153006,-0.0012837997968999188,-0.6464441090381383
182,-2.8314514236346753,-8.80020376946604,-0.38753337639862373,-0.008546988072581762,-0.0017230717217150283,-0.6458411185346291
183,-3.172209229837659,-9.11220023409413,0.2650404177402158,-0.010292760880699438,-0.0013365154038437832,-0.6499098417257233
184,-2.141600160247107,-8.583150630503582,-0.49490519321895204,-0.009378810123251353,0.00034617548527173686,-0.6592895231801997
185,-1.4646055406680183,-9.027767878363548,-0.30043515500581464,-0.009324480460827862,0.0003923012594279894,-0.6637141800234827
186,-1.8619883895811713,-9.069865424042932,-0.35713621887504066,-0.009295258193539463,-0.00022723585226270174,-0.6692160224825887
187,-2.523462182490501,-9.052247485460688,-0.2732661068487083,-0.00888764465774912,-0.0010869262017990085,-0.6727870156267063
188,-2.5764826149224636,-9.014922411465824,-0.11437788942348764,-0.008412487642489766,-0.001382198497816307,-0.6743926156855976
189,-1.073871912620272,-8.4738239351706,-0.687047598125998,-0.00920460540362105,0.0003237693155455606,-0.6786584147509279
190,-0.40812847968107674,-8.746175675224995,-0.2430018774184316,-0.009238821736784687,-0.0012797268774560025,-0.6796204833549699
191,-1.2008653552352595,-8.840703781544791,-0.2412001467459724,-0.008636842622777209,8.324455403672568e-05,-0.6773863998765983
192,-2.2894570640041843,-8.890124892413173,-0.29557964164476697,-0.008210928691301396,0.0014355716829415612,-0.6727546983109749
193,-2.577526589462131,-9.058436906336661,-0.11745130204252986,-0.008068471345642488,0.0008751813466086911,-0.6669681447741802
194,-1.0729913137339993,-9.513474710646545,0.3770532098619406,-0.007290202352589116,-0.0016818790070067843,-0.6618528352495554
195,-0.6960511326455434,-9.08807342491511,0.04051828361181016,-0.008088760745614659,-0.002574113746747888,-0.6617165494804553
196,-1.6184023865238555,-8.997140089630474,-0.3812595282785562,-0.008321561289347757,-0.0021928402342045474,-0.6610992208058677
197,-2.0615787922128437,-9.04261232954613,-0.42346184984766794,-0.0075328343291720945,-0.0009446474404544033,-0.6590247698807526
198,-1.33519632379611,-9.069358399450408,-0.163825089102401,-0.006056931051769321,0.0001790598243964377,-0.6555949339782888
199,-0.29977582064070935,-9.039834580547408,-0.42443570831116123,-0.0052501871970364695,-0.0006766228130109855,-0.6521786446749072
200,-0.8611229225019218,-9.391334531222817,-0.11778643077200632,-0.006045055117627532,-0.0015208079229685795,-0.6529251812116089
201,-1.7264916688658845,-9.362715504808495,-0.6022589767453747,-0.006856462227844075,-0.0011368122969945605,-0.6562512705947989
202,-1.8898204200587356,-9.15326411332729,-0.9427119726954964,-0.008060389018167427,-0.00027667446468576835,-0.6593113845419176
203,-1.0883275603119034,-8.873531800816975,-0.78970191411393,-0.009165976691794274,1.4669960666584562e-05,-0.6598793493712913
204,-0.03462360961007845,-8.469590197339583,-0.6760772122317514,-0.00836838696224883,-0.0016923396905673064,-0.656467235414493
205,-0.7489549219693293,-8.893289030868125,-1.2978868322076944,-0.008350214694023361,-0.0025679930401890107,-0.6572134735169811
206,-1.8263110483088048,-9.125310173830636,-0.7277716121201191,-0.007733525738206891,-0.0015764916935735464,-0.6574409241561288
207,-1.924411739144566,-9.21390601132219,-0.1449034297015483,-0.0076697979480929695,-0.00027901502873908476,-0.6586487249286852
208,-0.8520508891009505,-9.224507627169942,-0.09804643248615516,-0.008115113101708635,0.00038421008236667875,-0.6600596312237538
209,0.052017477734085604,-9.202388159968509,-0.18154351943016273,-0.007295308382745077,0.00037882762008175746,-0.6574936624916367
210,-0.6346597443771561,-8.908153179028254,-0.30525259456319787,-0.007306886226975246,-0.0012778514301487927,-0.6549398319655585
211,-1.7222496266625638,-9.207162458113388,-0.1699697483273093,-0.007325810778939558,-0.0011251026253791987,-0.6517583630200479
212,-1.8787388929801052,-9.176668683538042,0.054638893734717905,-0.007722485023424109,-0.0006735856848383752,-0.6511834868044908
213,-0.8243072805986196,-8.82329579380658,0.1957673476227803,-0.008354980497854764,-0.0006698873377206122,-0.65355649193872
214,0.3400596420948493,-9.474804864074796,0.08551810841458882,-0.008344036561026358,-0.000671971013464579,-0.6552638621557844
215,-0.73302839294342,-8.853479487449853,-0.44929510200310724,-0.008351936610255408,-0.001502687267271089,-0.6553093844194057
216,-0.8683844541285421,-9.056849518671603,-0.5306739151298401,-0.007742946763456958,-0.0005045375177290192,-0.6540613932227926
217,-0.37878755165885664,-9.566572051385702,-0.18059350655510323,-0.00731250643313703,-0.00042646945816674647,-0.6527572239020664
218,0.2204367706635855,-9.735859694073698,0.25303147846857144,-0.007133441927323482,-0.001552751917976588,-0.6528742430177449
219,0.2550790923304948,-8.80590965179484,0.00920621868705456,-0.006266959349959259,-0.0007140932210806068,-0.6562807008945574
220,-0.8837532243089334,-8.909279422480333,0.29609211232750493,-0.008683604213303834,0.00016085875344400328,-0.6572048603677529
221,-1.1284768939134924,-9.03831120180509,0.0887672335907668,-0.008764718314094297,0.0003952872750970598,-0.6561956091549618
222,-0.6478396202438249,-9.12120825955582,0.05164187431685145,-0.007554796428305659,-1.951160172631436e-05,-0.6528524672249927
223,0.0922802168717568,-9.054452516874006,0.18727373584443885,-0.006489989734475991,-0.0010708584495586935,-0.6486993148866841
224,0.30350215036862993,-8.652621184864694,-0.431333876437321,-0.007348433206261408,-0.002764777038196321,-0.647858086984705
225,-0.8218124219810994,-9.202960295694123,0.08742150160615066,-0.007353973632488753,-0.0019702702760925686,-0.6486707899624227
226,-0.35500811369223956,-9.143482942665765,0.36878022447490244,-0.00855770323469588,-0.0011073719774194219,-0.6495276754217391
227,0.2234134430483697,-9.00240013723349,0.29089398348284295,-0.009426883235634778,-0.0002462075914855373,-0.6487487392443684
228,0.18882463770679966,-9.14429576218183,0.012164018835804898,-0.009247066602119351,2.215796120377285e-05,-0.6465748223057972
229,-0.09408765590629303,-9.673255668980321,0.01615190390606318,-0.008433055829332797,-0.0016879781818976108,-0.6457245652568566
230,1.1304719217209376,-9.27226925721015,-0.7258495228963077,-0.00842115072205248,-0.0017232313002121962,-0.6448701682812867
231,3.194481900801635,-9.239178955695504,-0.47239586039381537,-0.008410663101361467,-0.0017252280954412388,-0.6465063483412116
232,6.783350747049888,-9.378068475284635,-0.15165688349563466,-0.008486214895894751,-0.0025288447672860556,-0.6359756451688265
233,10.55072431993068,-9.367838861150368,-0.19187126198737295,-0.008496403911575636,-0.0057655088738110035,-0.6094637759491144
234,10.450646501781819,-8.755919371768218,-0.3179986411167479,-0.007951874598443362,-0.014249366004603619,-0.5770525277586815
235,11.369799884451925,-9.070105861936291,-0.3149101556275143,-0.0036782123021901077,-0.003479413396397949,-0.45751034938424506
236,11.93936737344348,-9.394418400696258,-0.4572518572024449,-0.002038099641033365,-0.0003337942398864327,-0.30692717868793745
237,10.899319879044837,-9.356652087828396,-0.451740364101472,-0.0014367023666069132,-0.0009665668688496807,-0.14102315014672392
238,7.878393501469777,-9.137584023591508,-0.2770843398377091,-0.0006145158379083873,-0.0022966136131902784,0.019521599200271994
239,3.563981023870113,-9.608793864207437,-0.2694891715021503,0.0010765105696479297,-0.0030192503752765783,0.1459088310712466
240,-1.9528881581468203,-9.604346521389003,-0.10410645951496617,0.002088994328720665,-0.002924069504838304,0.2513567410358354
241,-4.915564370985859,-9.23373847538891,-0.17496429194600951,0.0029612848195400645,-0.0016511991607618963,0.28273362485763265
242,-6.89583538130905,-9.126491513436129,-0.2046600856021698,0.003055316069964538,-0.001599805286019426,0.2730290706564758
243,-8.108951225109495,-9.385821756905855,-0.1344853495917953,0.002518708794426598,-0.0009837896286993607,0.22730182907238525
244,-6.899356826906446,-9.450616573595601,-0.19481020015491068,0.0025051018635946195,0.0073997831695608125,0.11206228813171736
245,-5.535755536608299,-9.22751414135763,0.05900990618361821,0.00322370694550176,0.0007138237669268913,-0.012467892889778797
246,-2.774746935544134,-9.393669331905818,0.07922522525695302,-0.000908787932737796,0.005034987358988037,-0.125266342783795
247,0.05998903070322026,-9.585237118011868,-0.040247413977781296,-0.004606815643381272,0.005681654202146119,-0.21355007973841397
248,2.1036834614516327,-9.55776333341429,-0.25964634681862325,-0.005965875601805487,0.001136262244506261,-0.2694592630754927
249,3.083291335254791,-9.22885697859195,-0.6243015336588769,-0.00744835533544636,0.007089211008552144,-0.28993394060537836
250,4.065263737934772,-9.217696181198516,-0.5626764450412018,-0.0076193098407843305,0.005541408729130601,-0.27014950875056654
251,4.34355517279698,-9.349678588599655,-0.6119795648708354,-0.006038455553626285,0.0044911226273858,-0.231495698217123
252,3.9521603581857114,-9.37556320838959,-0.5761252016678127,-0.0038448301691153654,0.00490999963808217,-0.1816824731222001
253,3.0051662200375766,-9.31219526608054,-0.4083866000281651,-0.0012924298075404996,0.0046598212462583,-0.1278160026708147
254,1.6853899931994833,-9.503579481886327,-0.25759678933412317,0.0024948682615269953,-0.0021332868333810108,-0.07659087219603655
255,0.04133629305287101,-9.552461902892198,-0.10175028056685692,0.002381613054983466,0.001988091811970002,-0.04213934454585259
256,-1.0025784610549657,-9.49631809394942,-0.08780214155563257,0.0016940433366176835,0.003768590382608349,-0.028039076216168923
257,-1.798357234790243,-9.45249344279808,-0.17694557494920418,-0.0003355910347412563,0.0029850296225172766,-0.03280569354662191
258,-2.457466294329726,-9.467676688352388,-0.26256026258015175,-0.0027743086220512587,0.0016296091508538487,-0.0539128814144652
259,-2.7711717627578496,-9.503460166717986,-0.15727663533257671,-0.002530258684830303,0.0041427292584059515,-0.08805658704527368
260,-2.2906379814195876,-9.50314589950278,-0.2184630527285215,-0.0014362792568800866,0.0032813909476768167,-0.13146243458718657
261,-1.4417441688698691,-9.477306726410212,-0.31957787526210524,-0.001546526456290259,0.003632679359384468,-0.1750117343226417
262,-0.29987933060129013,-9.522702348068584,-0.34000233961820736,-0.002518204615914301,0.005689262935651645,-0.2139978925483673
263,0.7662523412022527,-9.558091888875392,-0.27616612863523915,-0.0033773909924995757,0.008467240754737457,-0.24432225776706534
264,1.0207771767827671,-9.285247940891798,-0.2627377596737964,-0.0024178592621012266,0.009288183316552338,-0.26224537040023216
265,1.6875397644744692,-9.22953913880648,-0.32318171523537503,-0.002371994240757935,0.009293555059367175,-0.26754895645057736
266,1.9482215694724738,-9.364346280633413,-0.4843422442177555,-0.00302328285081163,0.009306608330663506,-0.2619890905774173
267,1.8770881210934263,-9.52287355966535,-0.4333941970160416,-0.00353281373236558,0.009741531076107562,-0.2488579339571447
268,1.4825698376420438,-9.58631836911329,-0.23257215245963714,-0.003629411149571975,0.010411562617056997,-0.23278701029908047
269,0.6723244253215539,-9.491029611584233,-0.39206922173470854,-0.0037115112277791313,0.010427194098142798,-0.21997852734205384
270,0.15792536484805034,-9.584840208771295,-0.1319979996102969,-0.0021544025879421625,0.007060162073231695,-0.21054785040721558
271,-0.30326291866357874,-9.475440578195672,0.07646016076400444,-0.001112622437487748,0.00804179494335648,-0.20680986052199196
272,-0.699263833367185,-9.474722377576718,-0.0017728540484011762,-0.00023297224793298633,0.00808915578657357,-0.2134223146615432
273,-0.8205532981617153,-9.577677774880437,-0.2106161054164822,-9.838130449236983e-05,0.006728844301635629,-0.2300168762415901
274,-0.22152981933800897,-9.399507991678071,0.0595319109073901,-0.002451363466355734,0.009283371247220392,-0.2505123609738519
275,-0.08170965974216851,-9.202451332616487,-0.4103054953008791,-0.004810377959133094,0.008468301163084557,-0.2752430822255729
276,0.16761508109626844,-9.173290190005899,-0.2905201475034736,-0.005302375179350497,0.009480276066882249,-0.2993743305433833
277,0.5176797440813915,-9.15588767717167,-0.15973650394893332,-0.005152511404905191,0.010741350884181836,-0.32077425952952787
278,0.84652548555285,-9.08821342888625,-0.16310045374997253,-0.0046471386983701745,0.011366412337451278,-0.3362924642168382
279,0.9076306918264262,-9.020004389754023,0.07767101861785686,-0.0029410753177893448,0.011343136391456354,-0.34140554502372294
280,0.8773712099455687,-9.17240303024424,-0.2762231664233376,-0.003780073721033101,0.010513442991765981,-0.3380926831964818
281,1.2747092591201856,-9.23513964935316,-0.060515462863716965,-0.0033790943887676674,0.011547989373538004,-0.3365636128312923
282,1.3648672762868497,-9.194480577552781,0.085169161565841,-0.003365263593161679,0.01200178156684324,-0.33528970741821473
283,0.8184330391967537,-9.158918407758861,-0.010685277567187484,-0.004417967934869321,0.011162334903490428,-0.334206696437651
284,-0.23094062129696777,-9.373950781181051,0.03104874601398364,-0.006093306156370573,0.010326974014883692,-0.3350743790922812
285,-0.5105330910996726,-9.054793217663056,-0.43889790203915163,-0.005282108080764762,0.01031022814034508,-0.33507815932134283
286,-0.08674605898068785,-9.39218826372794,0.10460779535074069,-0.004389160227520441,0.010290919558316661,-0.34392329529603904
287,0.18290831975762678,-9.508560936539185,0.3414486389988726,-0.00428725084241585,0.010692767899591737,-0.3567135019145063
288,0.16742069489081346,-9.280516082258512,-0.146443560658354,-0.004818256734985742,0.011532383061515543,-0.3716090400701138
289,0.5566656702870586,-9.450620724199853,-0.7451165020377949,-0.004689473660379463,0.012360791761359138,-0.39039075121833144
290,0.5339193800555637,-9.460364557976813,0.06980575213030146,-0.004625787515985592,0.013201594620326365,-0.39901665083276644
291,1.4102107976284037,-9.481319849252047,-0.09899814467856766,-0.0051704089026864694,0.014047090527877752,-0.40945431162157186
292,1.5490252708836822,-9.424695121681108,-0.4245825372668618,-0.0055203148076562085,0.013632206007598902,-0.42181884252994406
293,0.8111275027972513,-9.316653254627523,-0.2833346677344095,-0.005859878994610719,0.012948967699998301,-0.4330087827231547
294,0.737512569255061,-9.313301924970908,0.7023453523950098,-0.007486097732383544,0.015516627693968716,-0.43642164005076395
295,-0.05210297208945028,-9.161250812675792,0.5760166872446636,-0.006646875685521597,0.01552437416268616,-0.43983228173027367
296,0.6319689207773851,-9.018437642633163,0.7089550478919385,-0.006399278483492282,0.014882939133326317,-0.44578513858115276
297,1.085566440229301,-9.201907404537419,0.70118202899624,-0.006364973754286983,0.015283920062979236,-0.45051123666957205
298,0.9764844736691396,-9.567546097765723,0.3266464244019087,-0.00633126643705567,0.01636196054326726,-0.45410456853701303
299,1.5023741623070823,-9.464897692027858,-0.440574220407529,-0.006295849355247717,0.015502288881252138,-0.4609398233028485
300,0.9937711358715855,-9.188015036300884,0.17418458446482038,-0.006284731566464449,0.015494290917802129,-0.4626833478161222
301,1.0266403375780484,-9.39917798243434,-0.47654208804933873,-0.006840938912296457,0.016122090394471853,-0.47200841478976896
302,1.099541034208885,-9.598161165505118,-0.9877117685491776,-0.007178519761476557,0.01654188749186325,-0.484805970383697
303,1.186864972501902,-9.58084343997038,-0.8114903342689201,-0.007509406417312185,0.01694758703201634,-0.4961780234052987
304,1.7940678883858514,-9.46888178537165,-0.3480820222958796,-0.009137731806490313,0.018662861218617106,-0.5004495335432306
305,1.3183594627455757,-9.174314797916539,-0.36009916905634276,-0.00905767959728072,0.01780715673129251,-0.515758843084946
306,1.0780083704405132,-9.148484323865546,-0.8245085713187843,-0.008377658479115722,0.01693673262491591,-0.5260441583561347
307,1.1774679148931377,-9.038343318539296,-0.47092959397461054,-0.007923352647390323,0.017339536707890506,-0.5303546607480203
308,1.563442707004293,-8.790188015382942,0.27468440279496503,-0.008102089101472826,0.018625367778473623,-0.5324407764594238
309,2.0238968991602957,-8.673957684713015,-0.834109647611555,-0.00888357462754147,0.018623454440900113,-0.5409849456980497
310,1.7158614806603618,-8.909104792399049,-0.7529224381507115,-0.007987279884526133,0.017752458193334052,-0.5529224662214974
311,1.93272609580157,-9.356774021500701,-0.5834235329449963,-0.008365927909169353,0.018169603236288127,-0.5572391381281121
312,2.066387153406357,-9.45071402831245,-0.7148063174976902,-0.008741380537416726,0.018172489993044973,-0.564451339907247
313,1.8411512911273078,-9.265630843896963,-0.8900796227681189,-0.008880580132497836,0.017937844908782166,-0.5751621809584322
314,1.338356483600583,-9.553272364634175,-0.17322687668576975,-0.009672690035468204,0.019644612097733605,-0.5794279761075816
315,1.9844479041287495,-8.791927184433018,-0.9396357443686169,-0.009662249626651858,0.018798916165348036,-0.5828509273396019
316,1.7371065170165965,-9.100405482874187,-0.34660606293955915,-0.009617964490554083,0.018574205729548925,-0.590092010486122
317,1.4870586367605247,-8.87315499723012,0.279163156655793,-0.009955769816717676,0.018987235120324353,-0.6016005138411035
318,1.5268373744267665,-8.510270056505309,0.13550240744011996,-0.01071080150534978,0.019622485398957452,-0.613377643697809
319,1.5162522205840996,-10.516673003094299,-1.0226232827595898,-0.011525129117900637,0.01962682504511885,-0.6167980991207197
320,2.4446233730351263,-9.681175768988046,-1.841593390921828,-0.011437198111574712,0.02046019653684343,-0.6295760890162193
321,2.2107913541791575,-9.282191240640309,-0.8865273261356547,-0.010797737341409763,0.019391453295287596,-0.6334504604491706
322,2.008915120490556,-8.883558429863555,-0.20048118524402692,-0.010762544173972877,0.0198025246682849,-0.6377019564989952
323,2.1980796544630916,-8.466654031086534,-0.49360355302819126,-0.011523196309761813,0.021509858848336037,-0.6468654285105689
324,2.2707323012923037,-8.452965622940793,-1.0992818610551467,-0.012280221687010366,0.02064955912715357,-0.6605366846318861
325,2.165198948229059,-8.451078690488984,-1.8066732421544782,-0.012260033379591676,0.018941108836393675,-0.6665361245252162
326,1.2422286090317993,-8.860168312048794,-1.269394057565975,-0.0121866497346089,0.02041384951917036,-0.6757016553637993
327,1.7421400731948973,-9.215440961433771,-0.9352350943386731,-0.012134232033541102,0.02211229624202731,-0.6812557972829612
328,2.7942957942615387,-9.179050401160106,-1.1022415403134351,-0.01252953869049565,0.022753041929676185,-0.6835976791085245
329,0.36596527408249246,-8.543122130349666,-0.8968547723738506,-0.014158979099282104,0.022761729210708754,-0.6904385945678729
330,1.9184741919251034,-8.690796015042947,0.19546985952326512,-0.014064665919774188,0.021891263021229276,-0.7066596563778449
331,2.56742488085824,-8.606588986130134,0.4900916945853355,-0.014011757969160925,0.02294605966928724,-0.7132785715317347
332,2.5839476735932534,-8.817936025730047,0.5845603033355342,-0.014388611497640699,0.022943344440060093,-0.7196837779096277
333,2.474012078734419,-8.904913380957801,0.38849905871856927,-0.014363276806669833,0.021872417709538433,-0.7252392388944168
334,2.973465421228044,-7.498656298102025,-0.8790975182671135,-0.011884636955583797,0.022705297436044533,-0.7192458458388256
335,1.7422195719831737,-8.75086383402945,-1.080673514212678,-0.01268801549330788,0.02270755242821046,-0.7243744730610622
336,2.984555752595382,-8.481808042724673,-0.5211824118578492,-0.013512525098583646,0.02271372447607649,-0.7262983693106598
337,3.604441518200838,-8.383782742160292,0.5472574771171015,-0.013509789928062328,0.023140561455512694,-0.7258670471889976
338,2.8612712728552525,-8.692908962309101,1.0134916325860293,-0.013112239005792288,0.02313626857045676,-0.7228704424702781
339,2.3507277318673503,-8.205658071847807,-1.076287853326259,-0.014019130220633651,0.02060379359394893,-0.7160622587026129
340,3.6705039587052983,-9.007490395617356,-1.5756408743290748,-0.015691246771120756,0.02232740541827988,-0.7135018832255035
341,3.7449337062524943,-8.290320692891425,-1.7858778305213523,-0.0167091261466829,0.02211597440734947,-0.718006403281787
342,3.1821509693325325,-8.215247187234437,-0.9242707353077332,-0.016706409073422204,0.02126266877429521,-0.7192715457666645
343,3.0977745743611145,-8.896767464248489,0.2719538151321071,-0.016103614695324828,0.020837363710856247,-0.7162919510677276
344,5.08727116987998,-8.45279542432307,-0.4107167207942312,-0.016087962488610507,0.021688458819557666,-0.7171217458888318
345,2.695026401437034,-8.277906024426974,0.8094386678189232,-0.015292630914626409,0.02254066434354407,-0.7094278926079425
346,2.49017250310865,-8.609528283522886,0.5110996949048614,-0.01567571809828509,0.022748523215453852,-0.7152390842506834
347,3.1661226667802422,-8.599831186773757,0.22308267361613066,-0.016056065332954984,0.022746012120474064,-0.720765204059816
348,3.8035132033266943,-8.44347636656226,0.34384468979289046,-0.016049207247858615,0.02274470637229688,-0.7218351380719688
349,3.8544207457033126,-9.328170127999247,0.17666285293542122,-0.01604126545530562,0.022737008302759387,-0.7235177590199632
350,3.58931075628016,-7.762597898539322,-2.1671014200437804,-0.016933331059259437,0.021049349708315047,-0.7175536234980576
351,4.492080137668114,-8.43090698160941,-2.611350515081428,-0.017764625368442838,0.021279698718975604,-0.7180151124440584
352,4.682206539616784,-8.800965781201029,-1.4879641122679033,-0.01815765260580804,0.021273196659621157,-0.7214396833064929
353,4.079845288954155,-8.28669544905861,0.017873944416352993,-0.017930925456006226,0.021065180307406596,-0.7239728960606185
354,4.315614464190685,-8.153273331572498,-0.08888038847041463,-0.01710172163885904,0.022752212580226385,-0.7214053129922242
355,4.66348111092927,-8.725078334880562,-0.0015115620082515428,-0.01795178317298217,0.021910427391462817,-0.7205607120232691
356,4.715804830326903,-8.267665218892434,-1.2784084008086605,-0.018209943034044777,0.021713296801915884,-0.7126212633478479
357,4.188140062621013,-8.433829930180838,-1.6317585607362912,-0.01820654149441396,0.021712649164257535,-0.7131519396071235
358,3.440131980115627,-9.009970571291717,-0.5190401931178463,-0.018158471617978518,0.021485693684226256,-0.7209858234308641
359,3.428531260866207,-8.044309521536869,0.946672920796826,-0.018177615801119342,0.02063561367188125,-0.719310165447342
360,2.3387415584280182,-8.032491243404065,0.0784807443003825,-0.01816409173096666,0.019780110339605566,-0.7227298781967879
361,3.8702688100504146,-7.855674241804265,0.2488249280956709,-0.01882550183657703,0.020873336971792576,-0.716465359062229
362,5.002563989844721,-8.335067997172477,0.12967212894247396,-0.018387714207449956,0.022142765391535986,-0.7152711589529872
363,4.90324070308252,-8.805547036546212,-0.5673933449972252,-0.017106344802617912,0.022320314225510913,-0.7207817738974132
364,4.765104535521717,-7.251363336383454,-1.1522950267015548,-0.01712289314182135,0.02062034096910088,-0.7224819315141285
365,4.7689536823735965,-7.858975192421099,0.8481622921081695,-0.01880918043814932,0.019787064734489733,-0.721641442369433
366,4.53070369987167,-7.82982298075707,0.8853049645892193,-0.02049581822089432,0.020244490823281707,-0.7188568134456075
367,4.568241716096394,-7.925333047769151,0.11559562132868234,-0.020917124954454677,0.020673050242462493,-0.715008828827387
368,4.7389470917070415,-8.208882761876586,-0.5292195201995327,-0.02008938851091064,0.020666262732072806,-0.7135892947629876
369,4.301043221471486,-8.110205876353875,-0.31538605484005305,-0.01921599315558614,0.020649558554085182,-0.7203521423128123
370,3.9190153964225143,-8.0525628360691,0.5607238357712432,-0.01922693709241454,0.020651642229829147,-0.7186447720957481
371,4.599653261355904,-7.929175633082041,-0.5451380009268487,-0.01858356672230551,0.02064333273686302,-0.7201677632606445
372,5.0047893442660545,-8.261036084160253,-1.5127840802002044,-0.018619332869105915,0.020647751739408547,-0.7166574891918922
373,5.054648010692093,-8.362361561265603,-1.4883772152296593,-0.019491067797291733,0.020442806100284684,-0.7114599720901285
374,5.786199972079687,-6.504623569794971,-0.757234461598183,-0.02028506391658462,0.019598820034021792,-0.7182495960966481
375,5.299764038673448,-8.049353017552805,0.6191380776021612,-0.02027959194817037,0.01959777819614977,-0.7191032812051802
376,5.1093778427928225,-8.058307107150846,-0.07249939682878848,-0.01962917940971806,0.02023539767595612,-0.7205977639601255
377,5.402508360063992,-7.6833305732891874,-0.2508834812053433,-0.01922300090950773,0.020650892798525233,-0.7192588583765316
378,6.12118448664454,-7.653607806557703,0.21031997643402048,-0.019459276371698107,0.02087810956812374,-0.7158751652718951
379,6.951193065158508,-8.310815526944298,-0.7131755299799662,-0.02028442095307154,0.021723502382063706,-0.7150869117803964
380,4.512277391136459,-7.756689721869231,0.05759473555633046,-0.020254483697838825,0.02086407318233119,-0.721068485353882
381,4.579468503806655,-7.635617483517585,0.45833922744320416,-0.02090005870353287,0.019371278038573636,-0.7218666322392727
382,5.670166723231032,-7.686339323887324,0.4462394352395257,-0.021739014010892364,0.0194142756084819,-0.7214526632303444
383,6.462982623979805,-7.703146061277963,0.0014083345643286227,-0.021925479259663695,0.02067870207698695,-0.7190034287044629
384,5.779814381306465,-7.528460638928305,-0.8577030310902651,-0.02034611784725992,0.020673224183835236,-0.7098255458292504
385,5.238046961904461,-7.359447352555602,-0.9775735148997534,-0.021942721307562793,0.020675659459384405,-0.7217893735220537
386,5.049495428409631,-7.633511319084836,0.5569380132744336,-0.021079253325304127,0.018721324808751015,-0.7233549645432544
387,5.161592480165704,-7.6974760445027925,1.0432111878152615,-0.020706386841617658,0.01746906988412924,-0.722523885466907
388,5.249442855241003,-7.340064702477791,0.04562759696851115,-0.021335402394290715,0.01770043587765898,-0.720518533612318
389,4.776336880600736,-6.756262834095136,-0.8864424987044532,-0.021385254573264876,0.018552095035156556,-0.7129468480747113
390,6.067725649406078,-7.8502395597818575,-0.36009016048998543,-0.022205054154229978,0.018557476519189976,-0.7155136183890899
391,5.8351291618058525,-7.908034977097339,-0.5540167482114163,-0.02108822340268878,0.01853864533570855,-0.7219722293808613
392,5.905640532758497,-7.95851974490143,-0.4685274465777431,-0.020254779884680052,0.018089983451131407,-0.7252824428749178
393,6.36402025835679,-8.025620877026451,0.056958920825346246,-0.020706720438037035,0.017467125669343,-0.7242099222075209
394,5.832369121452348,-7.296104947454339,0.4627731521146009,-0.022370400070873517,0.017486111360171704,-0.7224373337878537
395,6.0219396039074,-7.017955508013493,0.5212192725277905,-0.02241966320059692,0.017495490835774105,-0.7147517630642799
396,6.294087520096205,-6.708917877013605,-0.1215962622144603,-0.02300633215561817,0.018794053680386533,-0.7207426667413972
397,6.6743624818949066,-6.8358301037446605,-0.44884616084675616,-0.022528242735232573,0.01830216213219094,-0.7257324159953029
398,7.011907795451658,-7.156780845472547,-0.3643535325053464,-0.021320423351178883,0.01640860035495702,-0.7248348732913725
399,6.989193651033412,-6.837747678316058,-0.5209357123733467,-0.02136502766181682,0.016424569111057132,-0.7213954724161709
400,5.383618270443463,-6.544428911660123,1.0740104043741887,-0.023061936917210243,0.017299172070878527,-0.7162782162627027
401,6.322999866448382,-7.0211654378104855,-0.3126418333865789,-0.02408029263384609,0.018811779660896387,-0.7163710666002178
402,6.898716678092657,-7.146487872996563,-1.0649573924736448,-0.02361095422082843,0.017879191665170827,-0.7202753769216731
403,6.245613530031548,-7.030972755591895,-0.5950440762516271,-0.022160331919537066,0.015354065056435308,-0.7239994043600234
404,5.216182645203461,-7.768011078042244,-0.8139651243529483,-0.02136466974127399,0.015373753798462907,-0.721432667385374
405,5.307118739579108,-6.601885262654654,-0.7655991731600977,-0.022200568387717525,0.017088057293052416,-0.718868184000186
406,6.127420544233093,-6.422736555823668,-0.2799759213841599,-0.02307241803759503,0.01685215969450891,-0.7137003345561165
407,6.492427514162054,-6.678489177309286,-0.14623608391771317,-0.023034495741401758,0.016875228426022012,-0.715639764625549
408,6.1676483593832065,-6.81823743272461,-0.2715793442419178,-0.02303642132214122,0.01726659439049148,-0.7227651996188887
409,5.71245162955075,-6.299028983824681,0.13893430572329085,-0.025496678020316434,0.01647917317117835,-0.7235573760320172
410,5.771151119041901,-6.0823261897171434,-0.36043457413768043,-0.024670291451328662,0.018179336754840916,-0.7192748855047537
411,6.123534591580101,-6.474298937645195,-0.8512835572886737,-0.0238721319045455,0.017923877054316827,-0.7136937724511321
412,6.433348663281041,-7.028339725812424,-0.7998705903380883,-0.023907548373667008,0.01751265464746584,-0.7130069608025229
413,6.455280082364034,-7.271821837896731,-0.3886284050758539,-0.024267315682912995,0.017283541104629693,-0.718189598853971
414,6.045424062267443,-6.726765173492956,-0.3892203859954822,-0.023418907395244905,0.016443131068598932,-0.7256898989851276
415,6.778686537550438,-6.4642632177273,-0.9430619262249688,-0.024268657227602346,0.017307143355027126,-0.7222742980599408
416,6.3356445976835065,-5.780385628275038,-0.35425646629017854,-0.024500573210375378,0.016206816119002865,-0.7182104659108048
417,5.896054010585502,-5.552513538522297,-0.16281371450154994,-0.024536020332133833,0.015389866146888871,-0.7139452665898169
418,6.220055568281283,-5.951849969854943,-0.3914468738840259,-0.02498513631568385,0.01562280888375863,-0.7133306858173125
419,7.673260754883891,-6.553597013887952,0.12640670886690328,-0.02653195075126503,0.016434182873473886,-0.7226086196191539
420,6.938554849531522,-5.944114385473733,0.2126069918136067,-0.024859041158932185,0.014711362436022456,-0.7251689865665548
421,6.332794252033876,-5.754761024126447,0.3609011292905776,-0.025134274100041674,0.015631923805096013,-0.7205143980367608
422,6.07938747878878,-5.7612736342533895,0.09248332347978988,-0.025141100420277486,0.016018704933318462,-0.7141236495333619
423,6.202246145069793,-5.880127675059994,-0.5148562833208227,-0.02479500360060738,0.014940597269510483,-0.7092957663193264
424,6.541061857625469,-6.127260069334293,-0.9260011417916414,-0.02562824229570668,0.013279231393308829,-0.7075845813896601
425,6.075315088548082,-6.199189233643681,-0.48546814720218906,-0.024807657531056834,0.01327384192056571,-0.705017806461754
426,7.303257981500918,-6.151886808707312,-0.6348213056644488,-0.022745756967175873,0.013920216785258309,-0.6945613898202496
427,7.64805036640664,-5.615339779593281,-0.5451875359959034,-0.021616110168349405,0.014775836108125565,-0.6812984307176542
428,7.0331034957414555,-5.126283663174391,-0.45633479013941647,-0.021922875704606864,0.015416756889117353,-0.6676345395089345
429,7.3084547725222775,-5.889181019850157,-1.3853981948092806,-0.02286146718038399,0.015424993108707586,-0.6542632977389515
430,7.4229668913656734,-5.88568462072822,-0.8468751593936366,-0.02453680540188491,0.014589632220100977,-0.6551309803935815
431,6.871401301446722,-6.072008501716971,-0.6981963466703549,-0.024346052742810178,0.013089753622796447,-0.6467865869413176
432,6.744044615407185,-6.2304822877233175,-0.4431138230329952,-0.024008282027407558,0.012722596569473887,-0.6374621091160101
433,7.2504564227164385,-6.130118235255226,-0.5153320187411442,-0.024061886311393645,0.01289368685464885,-0.6288522075483316
434,7.891649688358184,-5.556553448902252,-1.9555919132472603,-0.024096761778541708,0.01127450732551795,-0.6178126358472567
435,7.387411450762004,-5.673304413395115,-0.11715885677481674,-0.021625311937370308,0.0129620667276527,-0.6092502937159484
436,7.255603784177267,-5.5942043207262175,-0.3588356599935061,-0.02169613861739776,0.01335352788707534,-0.6086099947421895
437,7.0004520569897934,-5.626621358422501,-0.8343227155899702,-0.020808144892842384,0.01201426055434272,-0.6076487497523628
438,6.799585092200003,-5.789462783597768,-0.8629606974522599,-0.019935774964761607,0.01061293262636228,-0.6023801464778692
439,7.324302886189988,-5.857742154623317,-0.6363113340922588,-0.023257731418487557,0.012305802479277796,-0.5922189056048933
440,7.9911675782779925,-4.744241149268172,-0.2739682841104863,-0.023309891521299458,0.011462805114471923,-0.5853911907229085
441,7.869839179660069,-5.414805350164349,-0.6118686061737185,-0.023418967498826708,0.011289098107916154,-0.5686728296341568
442,8.241905134853578,-6.031242054346878,-0.8839482421070693,-0.02215712374067129,0.011285038064947772,-0.5610660364097321
443,8.653665118710293,-5.931401096773744,-0.7089824578047702,-0.020335760226056893,0.01103484737610368,-0.5607490037647042
444,7.421610170307085,-5.357637906353745,-0.025443116297868825,-0.020390652443616666,0.010195781827355185,-0.5505258655877104
445,7.208463663384296,-5.610488241513316,-0.15997988026555118,-0.01962301568562593,0.009346602624675087,-0.54113218588979
446,7.680785576069548,-5.581294051422495,0.7247270116334794,-0.019480625996775112,0.008500589848208272,-0.535043095267927
447,7.784383669057503,-5.620032067316007,0.3313323687930195,-0.019547444017137823,0.00855300716555462,-0.524557816376146
448,7.584113350238818,-5.4229329102243655,-0.7448293429123017,-0.019855930850348064,0.00895685271100555,-0.5115226376469959
449,7.934251110776759,-4.288862079770208,0.16053054275827794,-0.020723700283843814,0.008142306808967065,-0.5047816480390879
450,7.390077974592391,-5.378898673673305,0.16510899395119738,-0.020745593295499083,0.008146475138706501,-0.5013661060226982
451,7.459285143243642,-5.449820328978303,-0.0017785532286310607,-0.020105271701210806,0.00880140994943016,-0.4992651003070463
452,7.682076862112139,-5.191856255868971,-0.04000813185069914,-0.018874486930331967,0.00920261057910333,-0.4917276408785205
453,7.971841571332968,-5.175365272348614,-0.011558078083082637,-0.01727084639773594,0.008964626580064226,-0.4812549110143368
454,8.462241955962094,-5.830317587123036,-0.2363296307603094,-0.015696563494514447,0.008123312899368622,-0.4769167458280894
455,7.481671795445966,-4.84029154393499,-0.4984133627546023,-0.016576570142031278,0.008140157534748326,-0.47009057520183095
456,8.041985454308296,-4.7600096456730725,-0.13939185933511175,-0.018168938611067543,0.008175717879233498,-0.45334087892047326
457,8.29377137994252,-4.767864679310146,-0.04908191572528907,-0.01902582445951983,0.008195723489577434,-0.4435744884017341
458,7.996581910633633,-4.787203802961697,-0.26443409799342676,-0.01905019539314625,0.007965321390975048,-0.44013331094542396
459,8.044833916070452,-5.231187234490617,-0.222982740436367,-0.01905893923328492,0.007147766091631178,-0.42993370231885886
460,7.844197136416267,-4.793645053911888,-0.41446225532839387,-0.016604222137120664,0.007132654510441745,-0.42138050323592546
461,8.182759723150335,-4.645499391558765,-0.34280793485404204,-0.015421972646889662,0.00712589663569391,-0.41681073123150025
462,8.58800533318794,-4.72698730091256,-0.3460259080115768,-0.014626083939550422,0.006676206258234278,-0.41114499143253747
463,8.752895536988706,-4.86159973053808,-0.5168239817681183,-0.014303135816186302,0.006536869947023757,-0.40345815698775866
464,8.49431437310756,-4.806379471476466,-0.7369869334188753,-0.015128096788785236,0.008142660411951481,-0.3957702559525306
465,8.08871052359083,-5.301353029104513,0.2755989574200045,-0.014366248838973052,0.00558872655020342,-0.38809308952004823
466,8.138141464187107,-4.935608654122346,-0.14165234307789035,-0.015545494735060436,0.005705421742420721,-0.37775955425871033
467,8.273431557734439,-4.690695922674314,-0.7285109958883863,-0.016397750749806855,0.006128668884950431,-0.36756193717969554
468,8.284012610201014,-4.760535348154589,-0.8814498091967344,-0.01575226789430477,0.00565752977392037,-0.3603008568116485
469,8.084922067181617,-4.7949561074326414,-0.46468112600787204,-0.013295028809448587,0.0039786472376811466,-0.35832517278215453
470,8.25861481887265,-4.9374753284676,0.0043176502901972474,-0.011692958518730263,0.003975171102511459,-0.3472142286156228
471,8.002506983540037,-4.784824948078252,-0.24896897170518884,-0.010735669153347716,0.004640767671771571,-0.336104489666459
472,7.988409992244718,-4.862866140309698,-0.3722132900403526,-0.010824314849562262,0.005051346180437091,-0.3290629909273014
473,8.328399669931827,-5.038365354486473,-0.30880847435730513,-0.011681929774948951,0.004826229390679381,-0.32612926484802907
474,8.717765197309753,-4.735375818141064,-0.5109730042828132,-0.012515650392911281,0.003985550031945076,-0.32418332820647894
475,8.27030187577884,-4.323341256011127,0.21489574295084624,-0.012589698369379999,0.0031467200186271354,-0.3139408728903661
476,8.255078366332183,-4.363532360146271,0.09820588976739514,-0.013295725502651186,0.004304471490196535,-0.30369249697646206
477,8.370779091891757,-4.575202804695193,-0.26086532214155156,-0.01285697065218689,0.004660878394728193,-0.2947975218862466
478,8.526245488160653,-4.685363263121035,-0.5301842795108841,-0.011475450538695817,0.0038042798064732504,-0.28710824325886064
479,8.75166429493976,-4.4450317647345665,-0.5512188735350135,-0.01077249507546531,0.0030312369618850023,-0.2792176570122741
480,8.548140655146641,-4.532338589531923,-0.2817770715510014,-0.012522027639592774,0.004768646064298947,-0.2647032937986381
481,8.544691755540498,-4.607336149901387,0.03942142306315104,-0.010360982543413728,0.0024739614376700007,-0.2555142475284408
482,8.49247021910124,-4.659061189874095,-0.0677978749719606,-0.009267574755689742,0.003129490634326307,-0.24917812801901684
483,8.36796248172694,-4.6600305870447105,-0.42232257627556186,-0.00964649429729276,0.005246473203580203,-0.24404682368409908
484,8.295339073436724,-4.57665629309911,-0.40332155677420317,-0.008900748168896164,0.0019963726511429817,-0.2389606981683363
485,8.178421237810904,-4.518321949032208,-0.3134597465393318,-0.008911375265960265,0.0037042528238270173,-0.23468312957730222
486,8.440377079106506,-4.518267965240325,-0.3563875816167267,-0.009601157246149777,0.004091104635422345,-0.22841460603861058
487,8.562720296194023,-4.525671059889277,-0.31550488250400077,-0.009583619825566913,0.004097245077869374,-0.22294428721595433
488,8.452828976113615,-4.472190124377251,-0.26419717933180886,-0.008315833675337184,0.003610967276167239,-0.2174664834663373
489,8.314926976049838,-4.288743654822316,-0.4442302260879432,-0.006037547512275221,0.0020037253140404113,-0.2088674388781666
490,8.532403773181013,-4.2671536355160615,-0.19736402029162953,-0.008595935720539422,0.0037444322247437603,-0.1986272161959741
491,8.881982487661773,-4.490341153150869,-0.23407801167097383,-0.008567393638492746,0.0014606764455173298,-0.18972672528249415
492,8.892245023562815,-4.508464733757954,-0.3960714242676037,-0.008674314463013862,0.0016928667075258403,-0.18118670510950435
493,8.643974113382786,-4.390295319797348,-0.562213028689176,-0.008370397102762649,0.003662682556433504,-0.17167036297158667
494,8.579369664873486,-4.527670992369329,-0.622351915591016,-0.005282707333309137,0.0019420471808790927,-0.1598468140054651
495,8.567341080961365,-4.4517284148842435,-0.29156031049070885,-0.007021157452611366,0.00026497322762142133,-0.15217941547722766
496,8.703791686559622,-4.430965168560682,-0.3076725114165113,-0.00807614118985667,0.0019173011813701133,-0.1438238164975381
497,8.649031040440452,-4.3139621161811545,-0.4014021518166901,-0.006740676972993953,0.0017429369865409328,-0.1348221403138834
498,8.442062046697005,-4.276382125287583,-0.4426953880675144,-0.004651456903019218,0.000142944863410846,-0.12639346037857785
499,8.367300815608148,-4.659913528772402,-0.39062129735187506,-0.005546445817345454,0.0010103360023499914,-0.12047506524102058
500,8.396650560353725,-4.319081299538591,-0.29331743498975793,-0.00723787524616382,0.0018846964998887595,-0.11621149027990277
501,8.59391782026439,-4.507342329013852,-0.2530571260753713,-0.005035212289989701,-0.0006195809686190198,-0.11060150003403124
502,8.64063374236398,-4.450677456335944,-0.35754405969938663,-0.004850738688064106,7.577317286138808e-05,-0.10461945033557744
503,8.538762443404234,-4.207023760019661,-0.5417054224630482,-0.0057089693415998885,0.0031387478474476146,-0.09741631417632393
504,8.491959897597333,-4.344729765266611,-0.6251829703116218,-0.00251633279869226,0.0029984634374778905,-0.08742032452936836
505,8.38851407595309,-4.398852199574819,-0.19837745120394323,-0.0017300168418990648,-0.0004130574322898223,-0.0848702410633958
506,8.46151707163958,-4.412311330701033,-0.11776800980566274,-0.002904110041704412,0.0015532302299824826,-0.0755997743186169
507,8.54334139884315,-4.330203089243731,-0.30992398646794117,-0.0037351106512801984,0.0026996525582396085,-0.06541293390042016
508,8.579286322197023,-4.254872487123735,-0.5843714500853132,-0.0035680089346414065,0.0008824662819410444,-0.05700425177566267
509,8.582570434156555,-4.373435660772856,-0.6625876311445216,-0.00284028768231359,-0.0031309757296588856,-0.05094941454629091
510,8.493558913206847,-4.329685923032214,-0.31664581177539514,-0.002869908097781997,-0.0005657500329861979,-0.04239764259883523
511,8.581225971677929,-4.350881094500555,-0.2241799656771722,-0.0022571876683867664,0.00132501292543494,-0.03250276834544066
512,8.645913330550853,-4.366008309418603,-0.28946755253290435,-0.0023748787053165738,0.0016692481638649304,-0.02317098625696092
513,8.607467018247192,-4.372691743475958,-0.45066962439052916,-0.0030359344991330323,0.0008341309211740929,-0.014394555015091199
514,8.46308638249696,-4.39863246924602,-0.6421564319497862,-0.003103591428181444,2.570606936625474e-05,-0.0051006100238891044
515,8.267742179764111,-4.147070873173141,-0.38291167237070334,-0.003147377451492143,3.404272884513075e-05,0.0017304740088901751
516,8.430002847237285,-4.176213052630917,0.46066555892368743,-0.002506419012781834,0.0027174373706332156,0.008578564575749929
517,8.261817117961224,-4.410018684663823,0.9968314909887488,-0.016323302244489368,0.02045480406786395,0.006691779470770313
518,7.861058288314727,-4.556665403709368,0.8978520986400688,-0.04448548195943482,0.045883464080012815,0.00020427116322792302
519,7.8162443619561115,-4.232041505847551,0.25261890446895463,-0.07691757987173216,0.05945178234131969,0.0009315361896461488
520,8.340690620524658,-4.376237735510284,0.49242920587508404,-0.10783758828645279,0.0631738395386071,0.001620867552299326
521,8.588240057618572,-4.241989809714491,0.8634548102924626,-0.14063338021002159,0.0729494398605944,-0.004404405170376088
522,8.644316826812437,-4.120402478126029,0.6583791219172828,-0.1694436628752028,0.08476727922188929,-0.008983702378852397
523,8.368224601201474,-4.087517809564265,-0.2214746460945731,-0.19319852471918458,0.09742253551949166,-0.010277399092938393
524,7.583807866625274,-4.087771528651471,-1.3881850220750251,-0.21390795559364767,0.111492528254588,-0.010198372658410634
525,8.331985785959219,-4.066259143317515,-0.4644477617034597,-0.23297510126062548,0.13127792927417536,-0.006799916315785855
526,9.047500672210962,-3.9352396466820556,0.7486664141867789,-0.25010125118287124,0.14566326304444938,-0.005438431858194717
527,8.90553752748054,-3.903079821558702,1.2313275478542565,-0.26850040773272205,0.1595437892760957,-0.005547920554412814
528,8.221078578830715,-3.9951480457581434,0.7296282481419127,-0.2898965692478517,0.17325143121138478,-0.005719609351495215
529,7.997422708099105,-4.12819320871763,-0.42457802905572417,-0.3149245075702826,0.18451108002944008,-0.004311620643024571
530,8.155237729026156,-4.364690748044548,0.11727011026673394,-0.340739653447487,0.194137806016973,-0.007833625357619351
531,8.011479047961076,-4.414012666940898,0.2811194859718925,-0.3717950111069038,0.2092035765337173,-0.010685576304507045
532,8.225549317716407,-4.373086767203983,0.009941558064346184,-0.39752502897436437,0.21873680430350573,-0.013353383365178804
533,8.53192381220326,-4.4287433343141185,-0.5763674180365106,-0.40980794996472053,0.21706134780294223,-0.01698928510180256
534,8.158810674576225,-4.775963077529364,-1.2264690286258224,-0.4030055887178271,0.20331348158712517,-0.022957979672602973
535,7.836444625731376,-4.471917379077038,-1.6199569554454132,-0.3912130729760658,0.20829770174104525,-0.027987859725744094
536,8.2253881363706,-4.505248426068665,-0.9218244844104322,-0.37742932666989765,0.21461088682739138,-0.03164758302690911
537,8.538046529160646,-4.449947249444573,-0.21686316569993952,-0.36678516192536126,0.21669772971380463,-0.03591537162810963
538,8.563067584464342,-4.2249962260395915,0.13989579157887533,-0.36218440791812384,0.2149442315984662,-0.03902597044069479
539,8.438819811720851,-3.979468664126266,0.21531121944285608,-0.36475601244649525,0.2133045990953531,-0.03741298333011729
540,8.475867850170188,-4.336316430512508,-0.008986580948629648,-0.36811004906850786,0.21248730398512994,-0.03743681230278442
541,8.406157853182481,-4.393852208618977,-0.22200438900614677,-0.3760840348098666,0.2137411195993852,-0.03747798854554425
542,8.21605073813867,-4.329730595655533,-0.5195669617287002,-0.38394097236198416,0.21228954815953244,-0.03706825890485726
543,8.01416085387886,-4.308692060579643,-0.8271752566580491,-0.38797460371127374,0.20807193989100084,-0.03775968955678978
544,7.982256907642503,-4.4685214837589715,-0.975332579000767,-0.3852949665649719,0.20418660152661675,-0.04203198496362498
545,8.181450257227231,-4.38267861071468,-0.9962272562270357,-0.37852604471670614,0.20922212096518597,-0.04623686729480655
546,8.138982757573533,-4.288136837286398,-0.8027738091238075,-0.372445156009996,0.21088457769066793,-0.05181757355075223
547,8.208628016666054,-4.212638315611273,-0.3520492770636948,-0.3683729696183183,0.21122579830551017,-0.05684102156651402
548,8.27294769243749,-4.253038031728125,0.10939074339110375,-0.36608628320166064,0.21094759251191694,-0.06084777800862149
549,7.986096136195758,-4.510415267490571,0.173936329679432,-0.3649150657234686,0.21030616928813978,-0.06441067793254038
550,8.009191017307032,-4.369691782011498,-0.11961621375130624,-0.374866422317852,0.21465822606946075,-0.07127987518650981
551,8.341154151784574,-4.195464192396212,-0.3061521038194243,-0.38092523654903643,0.21153118187850473,-0.07476961811292498
552,8.601519151828654,-4.289311170588413,-0.37488440821160385,-0.38323900931440663,0.2069058854566271,-0.07736729146565652
553,8.636204972284798,-4.363742078826459,-0.5221191335303413,-0.38325114628146073,0.20465589668012518,-0.07893257898653175
554,8.444119106305996,-3.8787255167255705,-1.0188070908136435,-0.38296770962632126,0.2070926663228376,-0.07806539121491632
555,8.462883697208904,-4.23071867340716,-1.1325959569371422,-0.3771188520416075,0.20703414434069384,-0.07717730764721059
556,8.468251874111617,-4.412692644463191,-0.45054234228750584,-0.37057944280462635,0.20764340752267318,-0.07899908729563278
557,8.416607711039994,-4.365532822040036,0.16334935007883733,-0.3661713776278471,0.20705507052408695,-0.07967317156629095
558,8.293317528710832,-4.248232051724113,0.26159055306449147,-0.36663938926968415,0.20686959510435626,-0.07907528323047805
559,8.117049630144363,-4.327012807979911,-0.3143361800633216,-0.3740190653847991,0.21007508992442847,-0.07926155869529507
560,8.175267976279034,-4.320638593274677,-0.6369366917375284,-0.37904118116842,0.20756718104431532,-0.08271910649321493
561,8.073289209492318,-4.294221851774059,-0.5528400447031755,-0.37877280352311504,0.20093570143926684,-0.08616526961803364
562,8.138225867390583,-4.3493114488011155,-0.3788639468215235,-0.3766470202661586,0.19790155251201919,-0.09005025248260634
563,8.27109721115743,-4.414817793780488,-0.39908181949629495,-0.3743453929913108,0.1997376155879557,-0.0935366449120588
564,8.163233697355459,-4.33136949854313,-0.8183788856493222,-0.3724241645629756,0.203732955061169,-0.09529414538285982
565,8.179592571475943,-4.173610727521523,-0.5729014954202464,-0.36655553361417126,0.20281708054457853,-0.09867945897578605
566,8.200556309726911,-4.1447662218161785,-0.27911167848955465,-0.362019330053603,0.20123477131510523,-0.10343829928544793
567,8.370554948904687,-4.093320419388273,-0.06290126438485377,-0.3628426850435166,0.20233495462593482,-0.10715827046754844
568,8.57340608199971,-4.062886856612375,-0.006880753301842582,-0.36906681943990366,0.20453207381283228,-0.11025537877409783
569,8.56023689143248,-4.170261935425146,-0.17017070462463202,-0.37784683463633156,0.20351811769124872,-0.11458167260930165
570,8.429847041825074,-3.899175417320107,-0.6626448451121272,-0.37871428858730927,0.19756047173060506,-0.11888501610450054
571,8.1388487707154,-4.026737389599815,-0.8860778397569289,-0.37690570553651215,0.19429987856623676,-0.1197500264792038
572,8.155646470228902,-4.152505287362396,-0.795702058730487,-0.373944223123724,0.1945209188144279,-0.11832577041838352
573,8.351125849928419,-4.204418703625706,-0.4634243479050711,-0.36884790084609614,0.1957527630288506,-0.11623890759122638
574,8.298434584182534,-4.281780600543459,-0.057653348566154054,-0.35999639653457094,0.19408583114566091,-0.11563502321869959
575,8.324416325432715,-4.385464057006463,-0.02929581204763871,-0.35744573059212165,0.1949061806236392,-0.1207398175520874
576,8.273068810141417,-4.328814563175212,-0.3149615563208102,-0.35626851275047794,0.19301761799143002,-0.12449996331563853
577,8.331445933396006,-4.299880366592402,-0.5713589297835789,-0.3595485681054107,0.1928326769303379,-0.1284053638097873
578,8.522951245881275,-4.2569594298262885,-0.5470699574616701,-0.36620748929344393,0.19357654515374878,-0.1324543713870344
579,8.760505097966846,-4.065266541272882,-0.10210730213037128,-0.3724326464245699,0.1916326864936154,-0.13600235639923564
580,8.6599461364615,-4.127663553947654,-0.18085540640373826,-0.36996570132979156,0.18393648844387317,-0.1411488737279109
581,8.356379046358455,-4.180472105426739,-0.5281985348372719,-0.3667398068229508,0.18577989662085576,-0.1455605708736981
582,8.137964070450678,-4.124578263159538,-0.6431373276339399,-0.3633538280174582,0.18859396176717474,-0.14744434723628091
583,8.154068040758883,-3.9814728439359177,-0.5597563132426607,-0.3589832456400058,0.18948167266017596,-0.1486998082578527
584,8.459078888956723,-3.8538375527649253,-0.5731967783948279,-0.3524468348045961,0.18847146923437597,-0.15275984391026892
585,8.7901055182183,-4.034698247086095,-0.41668412347889666,-0.349120804700343,0.18588158214274123,-0.15360718847680138
586,8.799067085393816,-3.5971848278133436,-0.2545850421900053,-0.3524747870624567,0.18677521190297908,-0.15310721330640575
587,8.983261080186294,-3.4638040773433083,-0.23009183069473116,-0.35750054187010705,0.18665048862748793,-0.1522835228875894
588,9.09340919294121,-3.7401951102480577,-0.3532393517231175,-0.36102447584472885,0.18421041004183997,-0.15275252113300855
589,8.562598438718139,-4.085393939328583,-0.5575275510854923,-0.36087022657659495,0.17994720166723452,-0.15600887176542777
590,8.177683753530214,-4.06232095571775,-0.7759710840278795,-0.35756641146175955,0.17565568738665022,-0.156010071107279
591,8.268179615221472,-3.9181254262035328,-0.8224525547057084,-0.35553575392584735,0.1775275000130655,-0.157360118229812
592,8.334819454701268,-4.011041008304206,-0.5234344560244685,-0.3505844773169377,0.17899537872125887,-0.16139253767003386
593,8.32019707959298,-4.224815535768882,-0.23687805146594,-0.3450556819239967,0.178416310970895,-0.1668222735334239
594,8.374272406901817,-4.208320487890559,-0.5069157858810027,-0.34412077396273705,0.17656173922490356,-0.1710950758825477
595,8.320865494331995,-3.9780717579510503,-0.14714359960233567,-0.34162581449203877,0.1722735227526092,-0.17537041575584147
596,8.248124049112118,-4.108219518857785,0.19340748406029504,-0.3444703288908137,0.17283181127788366,-0.178281688602011
597,8.45611125628849,-4.008739740046542,-0.1279604819597606,-0.3500335890237068,0.17364774357169083,-0.17850763965369262
598,8.729876576277467,-3.6793704497542716,-0.7596219008395559,-0.35471141655004335,0.17240174635906552,-0.17709341990594427
599,8.636949627542187,-3.436114022239508,-0.8620250533620397,-0.35439270080933977,0.1681877422921933,-0.17644347000362018
600,8.693243400250923,-3.659544334110876,-0.4692012971073767,-0.34771842802925074,0.16471039662996476,-0.17898269728066227
601,8.973328744030491,-3.632447214463332,-0.7900479817460989,-0.3450067626810096,0.16812456187590713,-0.1828860307315831
602,8.977152853532953,-3.761506623735394,-0.7697459187685729,-0.34098032110825277,0.1689354791259597,-0.18665382843508577
603,8.750843969494206,-3.865235309104572,-0.4784413277913426,-0.33614960234639835,0.16632787951716227,-0.19005372562186496
604,8.615787274040747,-3.5308111503317874,-0.4826487033253614,-0.3337383294239954,0.16374472318367053,-0.19313671172610034
605,8.67977934045323,-3.4606524016587263,-0.03635228059807245,-0.3329436445256994,0.16118453731643906,-0.19058245752707156
606,8.83448727375397,-3.913345598128619,-0.2974196564260375,-0.33747347742310235,0.16279116456165071,-0.1921680746320957
607,8.824076134114051,-4.166054093708993,-0.5287944626614891,-0.34004902559510397,0.1620521596091479,-0.19712258294175816
608,8.654169461208202,-3.9919962356782763,-0.473728719448491,-0.3403039843137386,0.1589032423734304,-0.20214001760804962
609,8.478793211614082,-3.481240425901295,-0.1701782155422742,-0.3408767635645326,0.15640129909350486,-0.2028644775460544
610,8.596673333952872,-3.642303777851559,-0.5037184299333397,-0.33672257007581025,0.15465736649862452,-0.20114007948289064
611,8.598103464072143,-3.5779969890989025,-0.8004787385790314,-0.33454523841696604,0.15636690230883152,-0.20147819033339592
612,8.427454534749085,-3.4804297150376478,-0.6687921665263504,-0.3314673746360313,0.15651794854228457,-0.2023132904483254
613,8.32826829355306,-3.4401894001633244,-0.3016564515449878,-0.3275562717688323,0.15451246767410456,-0.20315353786451085
614,8.62097629243065,-3.4894541602858524,-0.17665991253595825,-0.32451891715569564,0.15192551858515757,-0.20400177699780564
615,8.459312124651738,-3.496395015498663,-0.38859706552454304,-0.326211001118363,0.14938668831588925,-0.20487780503472935
616,8.425905306964658,-3.572455163709254,-0.35070403672024997,-0.3258545257011783,0.1468230308269824,-0.20919117580916757
617,8.347571128009744,-3.6530665853101274,-0.2374630843765841,-0.32685278742933643,0.14617249613004318,-0.21527692405292564
618,8.267332837676864,-3.665673110049373,-0.17044753781213323,-0.32905957466024394,0.14730334167836098,-0.22053642133609536
619,8.32894741313306,-3.5512189489408903,-0.25026182699614463,-0.3303155679762731,0.14861797409469038,-0.2223956759691444
620,8.584434535426515,-3.507203559698535,-0.56908266261655,-0.3253203155744589,0.1434528986921572,-0.2266604463559317
621,8.864048996938223,-3.6742372821886895,-0.40949634506726196,-0.3196100759428992,0.14034325344313844,-0.23367362288307134
622,8.847293716459127,-3.6594888899727787,-0.2691766156514969,-0.31793700738583897,0.14110066405261906,-0.23657140154897963
623,8.725783719703594,-3.521549258497513,-0.36427213275444703,-0.31753604883289044,0.1423973090496019,-0.23518065614198766
624,8.927070072181907,-3.5121168308530453,-0.7167162818685007,-0.31281641783607034,0.13899648918588128,-0.23260721605450427
625,9.51839525730187,-3.4327877671018943,-0.5132279444787825,-0.3120209477540896,0.1364362953299397,-0.23005295724194785
626,8.811431204385437,-3.4751098039921944,-0.6509356065726275,-0.3112394075693251,0.13387863906714206,-0.22542469175835278
627,8.506432210457445,-3.5500900892830023,-0.559294829211937,-0.31135456853668453,0.13323415812613906,-0.22413105908587794
628,8.717804349304101,-3.615470277689602,-0.31539429768297983,-0.31164915503938034,0.13355661673762415,-0.22716386213187748
629,8.832231218450724,-3.6431503631116726,-0.29315877835684656,-0.3107338219669229,0.1326375675796346,-0.2329852417815644
630,8.781230022663332,-3.5278012993088996,-0.578587514109859,-0.3090562255898607,0.13091371329302093,-0.23639929845102456
631,8.683022537326869,-3.26799961160333,-0.8454451240457025,-0.3080604845422673,0.12919694781309143,-0.2391251288429363
632,8.726067081709827,-3.325153488393701,-0.7274376854937668,-0.30532872705810177,0.12650210210605906,-0.24599602565976564
633,8.891058762782844,-3.4754325602940757,-0.3812381204222899,-0.30162053748689555,0.12490285802186588,-0.2556971266288005
634,9.062968365874237,-3.231708158213264,-0.2162497905796427,-0.2991936790522006,0.12710934791603076,-0.26347496621366234
635,9.244359411269027,-3.089401994053012,-0.4713727716366608,-0.2992406867465251,0.12455871186257214,-0.2600719403126225
636,9.161296234732504,-3.076950485797364,-0.39624730836098165,-0.2979207340549853,0.12337810526894488,-0.255961078238874
637,8.903628903908833,-3.1535184529740796,-0.5822307828333954,-0.2953374912326194,0.12154489956770807,-0.25408520848758365
638,8.639751143833609,-3.2686261943760018,-0.7165034055734955,-0.2922815795321884,0.1189593642482676,-0.25354599762737723
639,8.555157128668409,-3.3359924550954885,-0.24359126625556315,-0.2900689130686473,0.11654387212008353,-0.25178287869300314
640,8.450267876954712,-2.931483659194164,-1.0510968128480944,-0.2917577753603008,0.11656401456375276,-0.2492308485981874
641,8.582396506653811,-3.3812691614079267,-0.9138143517228164,-0.2927138588514119,0.11795436317832611,-0.2529155996849332
642,8.44447510926315,-3.487254653850865,-0.4921075125895438,-0.29257288663117165,0.11725069794087657,-0.25948435286929417
643,8.349398387269602,-3.2203224698278334,-0.33219664466861476,-0.29146453661261706,0.11441080807934094,-0.26530339079147564
644,8.862886491599614,-3.062099055676561,-0.8186915523328242,-0.2895459177022304,0.11098239460308304,-0.267397334593399
645,8.833055603497549,-3.010513748629183,-0.7033409963588603,-0.2836750285978638,0.10750730491127183,-0.27506438751041656
646,9.040932356941958,-2.9948059201281727,-0.4178349810680704,-0.28186577572407057,0.10962434095191938,-0.2778638267745892
647,9.01650663903721,-2.921324037494003,-0.2275427166947841,-0.2800927224744101,0.10965081145382587,-0.27667066960581005
648,8.86459032653095,-2.8194589465510855,-0.26157858203817413,-0.2776233993370851,0.10707333284447135,-0.27432684083533515
649,8.913159002910222,-2.775342434982749,-0.5250978140404756,-0.27519658142896586,0.10443901927117416,-0.2738832889515692
650,8.898724702215677,-2.8542266437749975,-0.3007777850316007,-0.2736014149660347,0.10102420157136897,-0.2670582633718935
651,8.881545683265038,-3.0842824036800818,-0.34652821712550885,-0.27193580778719284,0.10107281713753358,-0.2657838049458528
652,8.837909101127508,-3.269986326995137,-0.3052026338746358,-0.2707214546374776,0.09998244397604426,-0.26964335890370894
653,8.810976417653412,-3.2407813168008603,-0.35723718113522024,-0.27013105687440775,0.09822103639365548,-0.27513321326255435
654,8.849700529499644,-2.8960862136792356,-0.7999097336145956,-0.27000687859216005,0.09810506921747278,-0.27752589380710435
655,8.693328938642045,-2.829018618038466,-0.3935099416042106,-0.2683503979012292,0.09638457589629931,-0.27752440776282894
656,8.7858623266718,-3.012435207518761,-0.420910521017912,-0.2693504065471562,0.09676628276205514,-0.28589026277943186
657,9.043780761101248,-3.141442392193013,-0.6674997557715083,-0.2662620943086095,0.09420216196669912,-0.2937138370823479
658,9.172977395733497,-2.983955300668311,-0.7973361479897371,-0.2606429104970105,0.09064884978600327,-0.2969725094743295
659,8.844485803380056,-2.4322325976703207,-0.49790290184877045,-0.25759215269715935,0.0906775831382817,-0.2943931037475096
660,8.531261478308393,-2.4543833211377457,-0.5296895114090687,-0.258436425423104,0.09154055260858643,-0.2918319895131165
661,8.982197503312939,-2.7655183382850494,-0.020280541114365808,-0.253828180489475,0.08816897597045907,-0.2934451961525089
662,8.955576086465227,-2.5494997559323838,-0.309369171310988,-0.2532076908320784,0.08680337158758188,-0.29310360079912656
663,8.571807037466264,-2.2813965633513913,-0.7959637762495521,-0.25365441006434175,0.08603979616339814,-0.29081905485032344
664,8.50653603289727,-2.838276434333056,-0.24712656132099733,-0.24818356072228756,0.08195786428097451,-0.29008172694244894
665,8.74806999785263,-2.9305956434837914,-0.36392913517629333,-0.24727360896137707,0.08108238982145176,-0.30288946722600907
666,8.945129581489066,-2.8528905363758863,-0.7394325347156494,-0.24438492285208235,0.07950176491812047,-0.3052111333157823
667,8.87555695265332,-2.6407211264200487,-0.4045866749065834,-0.24340551132129257,0.08020765896357573,-0.3056875015915477
668,8.69583022174941,-2.4729252203413097,0.07235524026562266,-0.24368479880244973,0.08140684354804303,-0.30762555729513547
669,8.715623435844126,-2.557439970617635,-0.36679865763706243,-0.24284023940596655,0.07957277189341008,-0.31172260133819574
670,8.977365421771921,-2.645848630037212,-0.42511463554182044,-0.24202655846910365,0.07615604085603045,-0.313441744997145
671,9.196941854392698,-2.2442118226570353,-0.9221579603460944,-0.2412305384087842,0.07414047532739566,-0.3102590441463807
672,8.995518150656913,-2.139279124309672,-0.6960527923530905,-0.23758436143924877,0.0724055762211129,-0.3054900127275503
673,8.674800471852098,-2.3239575663518814,-0.2174736691423349,-0.23309834724320547,0.07147708274124351,-0.30170854165155164
674,8.789121880144434,-2.4644923610645635,-0.5002065529868415,-0.23148028401567877,0.07219389886405171,-0.30108017236360857
675,9.247170355517948,-2.493351399617318,-0.48530828666980985,-0.2306360112897342,0.07133092939374726,-0.30364128659800105
676,9.017101678180056,-2.384996558266093,-0.7088471865307951,-0.2284491799844235,0.06836063640326338,-0.3048038126604411
677,8.7732360135542,-2.271138706377413,-0.8571982552923295,-0.22880471809093814,0.06689840388745989,-0.306640924811327
678,8.963580319568814,-2.349742632595249,-0.7846170153311939,-0.2283440795968043,0.06606948583176289,-0.31112034347493017
679,9.73795824226545,-2.744036923433642,-0.48194725509768144,-0.22191923476803982,0.06368091220010773,-0.3192705010282274
680,8.9748648788802,-2.443739176782145,-0.6326850537724369,-0.21937951790041654,0.06450334633208178,-0.3226671235622908
681,9.206518956683018,-2.2246245989976443,-0.5885473020254349,-0.21963417042840344,0.06466176511976839,-0.31977288785589414
682,9.337169709636973,-2.1469510203314037,-0.4787938929328921,-0.2166593471504077,0.06365858110940298,-0.31939334059421165
683,9.221502423721859,-2.1333241862515178,-0.3657606703562648,-0.2129609951180892,0.062189684341992915,-0.3208420523723799
684,9.083311769971191,-2.0569108110156447,-0.30102796714537966,-0.21375249667664803,0.06134744510690283,-0.31987438506544313
685,8.869202976335401,-1.9543461657234154,-0.4763207824089441,-0.2137772866613919,0.06049923659623387,-0.31731669889064124
686,9.03363225917039,-2.0764330076570525,-0.6859381343735779,-0.21172848315429876,0.056120756336858924,-0.3217841390426627
687,8.945386414513248,-2.242934135337055,-0.3813505263396012,-0.20969500430984894,0.05342221469316415,-0.3262964114986021
688,8.893059531040988,-2.3173324413103753,0.05796732086329881,-0.20774662888339362,0.05282361004449361,-0.328050669057102
689,9.435577698821643,-2.2498811119593567,-0.0491424561648792,-0.2049407096795432,0.05273421917849694,-0.32694921819279144
690,9.908060474889703,-2.75440184298267,-0.2956199673045022,-0.19821317991119344,0.05180566036755657,-0.33374515578205816
691,9.743317183309124,-2.4903689665669098,-0.4473708764470303,-0.1976758599941113,0.05304629687897433,-0.3384584870822937
692,9.36825735324308,-1.9319871327145686,-0.3658574618135722,-0.1966005655346698,0.052786069937193564,-0.3378268436223191
693,9.176525639472842,-1.5761973168441297,-0.09471946037275816,-0.1941397076664856,0.05078735661857794,-0.3332760271942092
694,9.398153541363083,-1.833195741406837,0.17291340928957713,-0.19199278140920786,0.04834234640999,-0.32865606548316567
695,8.5681812514266,-1.9458160498824553,-0.4209135880228683,-0.19366343556614204,0.04750515131838031,-0.330378243358298
696,9.154616161833063,-1.8474899405877423,-0.7853215008690381,-0.18981219208179717,0.04590830399753536,-0.3341821230226221
697,9.033440251964047,-1.8369286063297467,-0.6839238377482466,-0.1867253963553947,0.04368244553963567,-0.33599165908568907
698,8.641063943657079,-1.8903972264281839,-0.3918618483309785,-0.18478741161212323,0.04248930906505842,-0.3368176948745465
699,9.21553193724611,-1.8733386664419813,-0.3625295658207411,-0.18224380999089007,0.0439721354984071,-0.33980510139453934
700,9.474868206391466,-1.8677831063923296,-0.5411942999955526,-0.17968800977411123,0.04308404886864637,-0.3483329854605309
701,9.48408025825451,-1.7768479512324622,-0.73531505022468,-0.17580210136342478,0.04078447582767731,-0.3512235319074333
702,9.311833299499822,-1.695657093247909,-0.5501265402085849,-0.17500104014784174,0.040673687981217614,-0.3494879206290501
703,9.312123625578279,-1.5967430858806402,-0.2975543923237495,-0.1758699277293745,0.041557475304255,-0.3460535277215135
704,9.807355552058361,-1.4371378116214328,-0.4621874083953537,-0.17486499649022252,0.04056866824850874,-0.34414966196986924
705,9.589878754927181,-1.5030330785263966,-0.2888301184591111,-0.17157180847245124,0.03798503414060853,-0.3398732927206858
706,9.357296404401072,-1.6763398220357515,-0.593940948324457,-0.17239712092653006,0.03684838434929637,-0.33773030035726376
707,9.119039994217507,-1.7529679786328645,-0.820827275402859,-0.17117748197304403,0.034999359424214865,-0.3404542337820554
708,8.970276200202113,-1.6590143794850678,-0.8309975010887316,-0.1678157747200842,0.03323889287863959,-0.34558344640297517
709,8.993623626905526,-1.418304716504161,-0.6599786387244506,-0.16438619205529698,0.03313483682649192,-0.34871643243683714
710,8.82378002206635,-1.4676096432728065,-0.4236909407611354,-0.16021267269208334,0.03224095395574145,-0.34869603152376144
711,9.651738860477426,-1.6422041370830782,-0.34832880319169646,-0.15600053669100783,0.0320452694981813,-0.3536167442435928
712,9.427822541908007,-1.554355652425662,-0.32551245150330177,-0.15324145966595276,0.03299761179738535,-0.35612152455192675
713,8.801455242783986,-1.237055729732372,-0.48253550091292974,-0.1529484120207042,0.03386361801536315,-0.3533170111564426
714,9.242383329804921,-0.9320833598280895,-0.8955795259032434,-0.15506487648378345,0.03277758468688471,-0.34512825278039894
715,9.697063801683042,-1.2160653223644524,-0.309690567562558,-0.15178842634901848,0.02849128057391294,-0.3408602249973291
716,9.445206335820542,-1.4707521871969869,-0.4152729512729038,-0.15120777505339908,0.026338122265675116,-0.34508470429006144
717,9.354658937111056,-1.5371808893657597,-0.4706355970946072,-0.15022925253926922,0.02511347411460808,-0.34859218537825176
718,9.43242359262036,-1.5514145309826661,-0.42784336170254955,-0.14746019344536881,0.02395239485862579,-0.34972751898544113
719,9.394298286116534,-1.7170867447408933,-0.45193115173320203,-0.14251829158822837,0.0224669462581758,-0.3503126039893261
720,9.338004513407789,-1.7307625381505238,-0.23382265601025007,-0.1382696092289366,0.024118480306312074,-0.357965253070949
721,9.069447767697172,-1.4240323687872276,-0.3269371823946689,-0.1340696431904927,0.02365662271126574,-0.3613787548360925
722,9.355549996311392,-1.1941992777815997,-0.374643813714303,-0.13424499143610216,0.023793128217807286,-0.3619613284417174
723,9.816245872883403,-1.1865593511523098,-0.31169908924547296,-0.13648818876867036,0.02410649296869383,-0.3614009155393793
724,9.73977994078122,-1.387297557347823,-0.20092521478515363,-0.13616544467317993,0.023115855186375794,-0.36106215592931834
725,9.553096318465128,-1.2141154901752715,-0.2694614932235099,-0.1320360360312034,0.02052371310257547,-0.35678087327361524
726,9.56056121382844,-1.0314862371908393,-0.4867618008662955,-0.12998711209811467,0.0186604731653637,-0.35179890507502726
727,9.735641688350963,-1.0633330217273276,-0.7108334262789543,-0.12782213122186736,0.018416577552957638,-0.3531081516267602
728,9.611949816998774,-1.1864605315216918,-0.7387272065567893,-0.12499769375330524,0.018387435047673775,-0.3590691485808833
729,8.803151862506269,-1.1784650009417856,-0.4048247311952293,-0.12183601890421204,0.01678416724226592,-0.3644821278500518
730,9.200095131606329,-1.1766982955219711,-0.0769563293589764,-0.12100527024841995,0.01677670110423703,-0.3636235293349988
731,9.313456450020118,-1.2504311280760771,-0.39596646155097653,-0.11806593929741249,0.015324985668975024,-0.36843829211052814
732,9.373466254908848,-1.1942300852701644,-0.4599667590601,-0.11567009148117599,0.014086252078524052,-0.3739107362307089
733,9.407280292809592,-0.8214223837097818,-0.45732694741061175,-0.11427303671599362,0.013501792876789898,-0.37506176475668457
734,9.394698935247984,-0.150721175548724,-0.8229074542975466,-0.11334125475405335,0.013640016507047287,-0.36822427174377587
735,9.52123963800352,-0.9252351235529623,-0.5476961322933278,-0.1108596331635786,0.015326298619485618,-0.36137010210913934
736,9.15200276611343,-0.7620154466951788,-0.34881675068410484,-0.10904657302547274,0.014173574802674465,-0.36306240975555837
737,9.272927278551176,-0.7202975947167625,-0.41824179764864855,-0.10688759857686486,0.01145141097049124,-0.36697580129509755
738,9.500501217295076,-0.9142018370750454,-0.5135767594128968,-0.10410755354769127,0.00914780432371189,-0.3692505664574607
739,9.181688237835669,-1.112546832106441,-0.3363026777755739,-0.10090731005881455,0.009116396798188552,-0.36823381179861336
740,9.825939192168937,-1.0677447865177918,-0.5862897146678675,-0.09919108278709136,0.009091044186907935,-0.37505506901835145
741,9.373969513463091,-0.7349072244605677,-0.5909212330021117,-0.09469737511063162,0.009750247580333268,-0.3790101388902585
742,9.05236517051108,-0.4385318312292286,-0.5935912521878961,-0.0916248044959242,0.010073025508081658,-0.3794157231402958
743,9.306920892295619,-0.35352188469126655,-0.5049617247706666,-0.09052200177401885,0.010348956055453232,-0.37712959176087807
744,10.089475793152054,-0.5052816976237063,-0.20832033614732673,-0.0903976623572727,0.010917262486973065,-0.3737104524371417
745,9.522688919212824,-0.10112908250675175,-0.3605117291603265,-0.08877222880318449,0.008349610481712358,-0.3702975997230594
746,9.23450871330623,-0.49500233658040255,-0.6176720602320743,-0.08854652111348098,0.007220953981542825,-0.36403616474315137
747,9.337492830821649,-0.634881369944605,-0.7434906635292144,-0.08659472725126816,0.006348449254967005,-0.36468590059122175
748,9.385051762641387,-0.5760429835805656,-0.6167005046677289,-0.0829409193290172,0.005452747603573535,-0.37036028792311054
749,8.91997370337331,-0.688822144889414,-0.2441126005025284,-0.0789511477923128,0.004627972720137746,-0.37488286991706543
750,9.222131731245756,-0.633085866081382,-0.31395550541098904,-0.07728887043504282,0.004613033433621775,-0.373164866691171
751,9.252978553922196,-0.5010940844876789,-0.7590955125716004,-0.07486588791362087,0.006717410119327378,-0.3778527547749142
752,9.753629693204346,-0.6000287736521404,-0.8558227832128766,-0.07229791795903646,0.008740338667550297,-0.3838053376173822
753,10.157749717398968,-0.5945016359455242,-0.6390372436386409,-0.07089642917682283,0.008709761631360249,-0.3863328035122363
754,9.678085398552325,-0.07248142658071316,-0.4194003458878599,-0.07150734910978115,0.005461719943602493,-0.38164132286546826
755,9.612168758713889,0.08813512485508718,-0.47744495822425737,-0.06907484700303475,0.0037449811734637734,-0.37224197855785235
756,9.17963426921819,-0.010526178957292055,-0.6063560913235502,-0.0686790791552445,0.004177956130608618,-0.36927214188929786
757,9.263932488556378,-0.2834078670408006,-0.733114632361456,-0.065243813672549,0.0029938723352502345,-0.3710561578478452
758,9.415641010011491,-0.44377632876861767,-0.6489722257303516,-0.060234543905623106,0.001245770178504676,-0.37357821580384754
759,8.948910011720468,-0.24078413323090986,-0.2045538541922112,-0.05718049326528335,0.0014378311970218874,-0.37322660379748535
760,9.162056518643334,-0.34481013312466235,-0.10126706537423852,-0.05712253649613188,0.003986382596485941,-0.3783378014978526
761,8.994034539503286,-0.1111277553907802,-0.25278080349272974,-0.053590834675381886,0.002217717811862466,-0.3855941035058372
762,9.261276815076972,0.013106404487345444,-0.4892249187507598,-0.05135831493561223,0.001136709686093624,-0.38975861858432886
763,9.549867561003952,-0.028641321607733083,-0.6360052901887923,-0.05079964218299652,0.0014187241509623257,-0.39001908122261
764,9.234373034175682,-0.13896635333223215,-0.5354827553100743,-0.05044102108102243,0.0021953476658641514,-0.3872252886800404
765,9.477350429200502,-0.08327571018720462,-0.19823336409608455,-0.046291974862789596,0.0021590527813850477,-0.382077003218194
766,9.574693740690545,0.11273057892788936,-0.7071332714240163,-0.044982686597040675,0.0014420620449127925,-0.3726533537011783
767,9.456179872292827,0.1355600251168591,-0.557174981669721,-0.044172183742463206,0.000585192816763588,-0.36994651566748477
768,9.412615812022926,-0.17292737095004143,-0.1824960097494712,-0.04161651210940986,-0.0005864058525225321,-0.3745252037029893
769,9.70521300255071,-0.7343458329350803,-0.4807338995278185,-0.036323084279812026,-0.002124840472524759,-0.3822788780535915
770,9.325590894284112,-0.06665175906751591,-0.6914455582829838,-0.0371509281043546,-0.0012641981184982594,-0.38227961681087497
771,9.233956979545692,0.18232779208892064,-0.8202106334331902,-0.03588902267088968,-0.0011385828522672407,-0.3808375089031689
772,9.555479643631163,0.12555223668905877,-0.7288867248883875,-0.03218603358643682,-0.00018052948363755223,-0.3881674414330696
773,9.70832000970119,0.045196882945404616,-0.3512853768837228,-0.028523104031112936,0.0011864285913293542,-0.3962855141870065
774,9.13630854704059,0.21759706547204535,0.20853309384686958,-0.027703283792560932,0.0018806913451043289,-0.3926365039240149
775,9.433173997991704,0.32688505684254476,-0.2140525799000953,-0.0269676987993694,0.0010377561591980505,-0.3781199073791154
776,9.29247593770268,0.21895089534010695,-0.4007192728225377,-0.024755639045901813,0.0008844855352835713,-0.37363891793178483
777,9.187272217502269,0.09404764087571806,-0.7468957052704771,-0.02225361248080536,-0.0011556643992622537,-0.3756124944188416
778,9.051620634111782,0.18127499879765951,-0.8267896626157167,-0.020034473186741637,-0.003716974219642978,-0.3786969050029366
779,8.764551958382832,0.5849592244227265,-0.2105270665997343,-0.01852099043279357,-0.004194727406523879,-0.3783034661133247
780,9.135513486232702,0.38124639482006406,-0.5090252595734576,-0.018460136690553682,-0.0007937991666519989,-0.38255680797210256
781,9.168388105181924,0.6283683429884005,-0.446622226310623,-0.014169916815161717,0.00040896948820472374,-0.3911069323565559
782,9.749198539341467,0.6926214100197612,-0.5822282609976491,-0.008633442042903998,0.0001919212436194938,-0.3949096762412011
783,10.17541671292633,0.7126017851940101,-0.5671462842936623,-0.00507615183996013,0.000179920220924044,-0.39342810288658386
784,9.528243481052776,0.9727932633925119,-0.046426053860121226,-0.005693784013615182,0.0016588895948168375,-0.38915451127678446
785,9.230896886745095,0.938483012321224,-0.8748053324604047,-0.004057084544935884,0.0007949494325009656,-0.3848796319880577
786,8.960305801278276,0.8180488332781732,-0.5277708756796412,-0.0024774954964614645,-0.0007759565146194852,-0.37269425351517915
787,9.05067379298864,0.5649040090096238,-0.29018548537707417,-0.0008571360616549817,-0.0024893302869520304,-0.3671295870363294
788,9.201506757812295,0.2893046745228657,-0.3175541080535581,0.0011148640157648806,-0.003925409392982195,-0.3712261936983146
789,9.033940358129847,0.1930018190637069,-0.4392559975269923,0.0035334709912067832,-0.004655517909404574,-0.38245337566482096
790,9.19704795597819,0.7661745890698655,-0.7538956231717301,0.004406210720669789,-0.0038179090390904314,-0.3867135140366378
791,9.362996703281063,0.8411582687962846,-0.66053943750054,0.008110379836369976,-0.00013149809961974048,-0.38806174177778824
792,9.778902070002864,0.932659546951873,-0.48311195948153934,0.010860507355456437,0.0025758118381297964,-0.3929426627501077
793,10.023052603838853,1.0457815152292822,-0.3562004512075403,0.013426558521503297,0.0024890351920355573,-0.3976748711759929
794,9.618329261947729,1.0994653279965152,-0.38567358984775335,0.016696875415021774,-0.0005463762806404039,-0.39536642645161174
795,9.249773450880284,1.5500235350430935,-0.8866733512314943,0.01158235715405475,0.0003758223655457539,-0.379167720411317
796,9.51393649182106,0.8940979946619805,-0.44008016414235757,0.01637862333514547,-0.000967624439720838,-0.369412650963011
797,9.844148340530115,0.5150093989522312,-0.750694258810797,0.018584500491237988,-0.0011724461795428634,-0.3684807255204545
798,9.91290220589139,0.5400890556997453,-1.3392424634853033,0.019216647288347294,-0.0012138121624727346,-0.37245192419945294
799,9.569550511645701,0.7073492927936342,-1.1842563418811087,0.02233611332653094,-0.0023036560841290825,-0.3760986759434631
800,9.405961770440877,0.8381914048176418,-0.39451584834993325,0.023260877370971714,0.0027901498847585494,-0.38204612923048903
801,9.432377809879537,0.9049539376810214,-0.22880035939928847,0.028405464270455264,0.002074036246256778,-0.3930507728161405
802,9.396865235729337,1.1122520205066748,-0.11790842310034746,0.031312199280267364,0.0018557008148606747,-0.3999014794028519
803,9.516652934338303,1.369547394441263,-0.1690135693928528,0.033023537090145466,0.0023948190851044576,-0.4000536490372991
804,10.06079688473281,1.4869754814408112,-0.5626991704322541,0.03592941113609005,0.0023718735587499084,-0.3943058792122959
805,10.672330090825142,1.2362216899482628,-0.5890961001621158,0.035071297500228374,0.002384549864390177,-0.39089525060242664
806,10.234110798792171,1.346985372470391,-0.5980876305386249,0.03699696134321461,0.0016555747375493917,-0.3809646097384939
807,9.413606367337369,1.3513360637611493,-0.48861329116002944,0.03943360787482928,0.0018091912077261448,-0.3693383843035155
808,8.881755384636783,1.1183960909494493,-0.3034555612267375,0.04278457537602522,0.002337223369404705,-0.36388279435799137
809,9.100955769524615,0.6924023777934711,-0.20046356511059718,0.04768676865412771,0.002278878449336429,-0.3711850733386736
810,8.988368224107145,0.589585808800591,-0.8206513299746524,0.05110905930643212,0.0022302498920609643,-0.3831194113652974
811,8.943891040371819,1.3225422028315568,-0.3404008219863911,0.04880396504790078,0.0036958663083874765,-0.3842234332110953
812,9.422005207516063,1.486766247028163,-0.4288291265518311,0.05048724095253347,0.005380095820978652,-0.3859043182789851
813,10.01766640367728,1.3116086505627247,-0.8979652382719301,0.055258955868986825,0.006436020066530308,-0.39107057850317223
814,10.157680084359974,1.4165206517659923,-1.056997808663008,0.05924143156792144,0.006638873632990795,-0.39807261048048853
815,9.993610199798624,1.6160111830037371,-0.6855658962009977,0.060895986659377115,0.009184990735156483,-0.3912191789057897
816,9.244391283358528,1.8319916627301462,-0.3682537606379279,0.061774600141761365,0.008853998180364168,-0.3785859771139908
817,9.049900641408021,1.6157609943830131,-0.4358502092244555,0.06304396069249668,0.007489268102763865,-0.37003679422152963
818,9.150220027996962,1.3404395583099113,-0.7523352181233081,0.06497845074218056,0.005768940145243711,-0.367892263708283
819,9.008209232599357,1.4682013410636796,-1.0015076392569053,0.0676618153451775,0.0044577794943410284,-0.37112847944344735
820,9.144372802484588,1.3256531803399672,-0.6815159137368646,0.07188054745307607,0.006967944344871659,-0.37279875728550277
821,9.661566369439356,1.3211599948854,-0.44631531368132327,0.0718619376813488,0.009516191206282566,-0.37884842884700937
822,9.765523945591358,1.4368171789126372,-0.5799677247134306,0.07308477255820045,0.010006568534067778,-0.38618262840366785
823,9.59501124248049,1.678065895048336,-0.7203697983898955,0.07562270498543754,0.009421395115920862,-0.39146299810306107
824,9.536146888381758,2.018171691363535,-0.43227791322776987,0.07813490640055157,0.009566731448294886,-0.39161476032445647
825,9.712726500211673,2.217438035077016,-0.1150068581384851,0.08062277728496345,0.011251164358561808,-0.38561427510100765
826,9.920005296906808,2.0236569868870418,-0.6867981081532368,0.0809872992091413,0.012229515928302652,-0.3825362634602151
827,9.694882988639154,1.6458732389417103,-0.4696870881084675,0.08295337563179223,0.011020095373158074,-0.3774025471462743
828,9.177069349072267,1.5142323555412065,-0.23638233523164712,0.08476638661133452,0.009952276760198548,-0.36906557967724657
829,8.710741141802002,1.914404204985847,-0.9937697515147811,0.08413981542273453,0.011672694123588102,-0.3594336395475294
830,8.733354879556787,1.7488855530742216,-0.5281228094893587,0.08585089542396848,0.01335497922270857,-0.36283100936858315
831,9.407983424411217,1.5793080645608675,-1.0828907813288857,0.09046332575636015,0.013544905055551084,-0.3764012536662851
832,9.69847475808169,1.5968103518496546,-0.8848481730484165,0.09401529162619243,0.014014260424033264,-0.3824954216649943
833,9.549137627121288,1.767702200455848,-0.4152624653857624,0.09682460836855078,0.01513806360512399,-0.38157086124043504
834,9.25156873823365,1.9419449145516057,-0.49359944110828124,0.10017803167752141,0.016808613001845198,-0.3800314655198228
835,9.440658077332264,1.6747986279097185,0.1618607428650407,0.1035897030909234,0.01846866399284359,-0.3876882310392324
836,9.753249659894262,1.7756065508874377,-0.20027243423422145,0.10550640139210232,0.017973448457774203,-0.38808268373435995
837,9.661812607438879,2.0256355762546363,-0.9305947121205014,0.10561764505163872,0.017642451981893466,-0.38105069892470933
838,9.43366373073941,2.2350059004497114,-1.1335072177426764,0.10561212715620136,0.018255176821588934,-0.37145540106839675
839,9.44620392471376,2.211966278449532,-0.25232230783523624,0.10726183605871337,0.019860130567631383,-0.36540226635106177
840,9.271548886309784,1.7152233278028333,-0.35251310075995623,0.1089489112588882,0.020694199167373355,-0.36624194538378724
841,9.037328072278797,2.085976486169908,-0.3656384124381003,0.11133345262019576,0.02079523348169815,-0.3656232471697405
842,9.107374979861646,2.2002583526305908,-0.3371969970561044,0.11283332262261395,0.02077976810014765,-0.3657920963356459
843,9.30700899171584,2.1559467423921266,-0.3391083141049889,0.11488961181590884,0.021356996088251638,-0.37026140553133835
844,9.329419462150161,2.2927635539309033,-0.4356959255562089,0.1188039151665006,0.023008303055686886,-0.38043804934983905
845,9.028704864347088,2.312493370361432,-0.5966562413144653,0.11967408775879919,0.02470012997987089,-0.3829866428553552
846,8.969006469370678,2.599184536080206,-0.2991245774147897,0.12049184546316274,0.024942932196341472,-0.3797030341610464
847,9.026517311859628,2.347391141399382,-0.36892623912648204,0.1223232524256024,0.025959576543563265,-0.37541741265738215
848,9.276396897053024,2.0914455483998657,-0.48494615640187994,0.12483048612070777,0.02733720135284904,-0.3729466763924031
849,9.707035267185079,2.5080949855716836,-0.22825312251927016,0.12752308253711653,0.028071382801389804,-0.37287994477203007
850,9.477529886141834,2.8297396419008893,-0.5698362675040811,0.13165649289579293,0.028038206420068414,-0.36516979778879904
851,8.88153812956493,2.621495980061507,-0.3932355103732066,0.13291926103229004,0.030226027929085103,-0.35308136646994986
852,8.921660874282717,2.3000431446123444,-0.31446997698664525,0.13477215055795486,0.031731905653618366,-0.3511232061828849
853,9.154356763026765,2.133195894598672,-0.18595217458909927,0.1382234336142488,0.03162926270291441,-0.3586614861356284
854,8.958693966512818,2.284858258539073,0.13568972150269132,0.14285081742240052,0.03032114247695716,-0.3691389485062743
855,9.123244994430651,2.5298811868682423,-0.49834796301395257,0.14370198883813373,0.03286951554954027,-0.3674133425715506
856,8.926231338179063,2.7341586374328255,-0.47904441342206494,0.14167383862110805,0.03471779243443049,-0.3649766700643049
857,9.258008740035393,2.875035392434391,-0.3652413290489692,0.14426118351462824,0.0358766469548461,-0.3660229041358504
858,9.529326829796526,2.8352277172766374,-0.26252952863481804,0.14924779526816567,0.036674252321290006,-0.369100053282103
859,9.059352783274,2.6153314537910406,-0.22896377717035302,0.15198012557831625,0.037588145142721505,-0.3702627458749248
860,9.029040751815453,3.0500837509176897,-0.7445621462414469,0.149421737370052,0.039328852053424984,-0.36002252319273204
861,9.052801123504361,2.672907866420819,-0.5297239288523337,0.15189549045614698,0.03955328560036024,-0.353422455332951
862,9.332768910446894,2.6822390457160763,-0.7797392404439736,0.15573977984163354,0.0400351490861675,-0.35105498007894115
863,9.423550027136994,2.9347065629461717,-0.8352113928121855,0.15962642015223844,0.04084824512699679,-0.3504160782860036
864,8.911040686980497,2.9842723762799857,0.009343757987691978,0.16278961514628643,0.0418545607942282,-0.3486849529641983
865,8.56750433045036,2.7288871399895145,-0.16363174860438917,0.1644770071862255,0.044394425890910014,-0.34695443362295403
866,8.8707174202353,2.626635536687735,-0.5904257551281088,0.1661775501230127,0.04546580166357238,-0.3496318908563944
867,9.021367008862109,2.789572751418837,-0.5161794476026332,0.1678940680826986,0.04629340831841375,-0.35511406045352106
868,9.12183536520274,2.9057131021888116,-0.0750909244424675,0.16900926623945495,0.047434023075687705,-0.36009189617252013
869,9.349544419237798,2.7242003139529087,0.30018750241542513,0.16921263421478672,0.048947853827715285,-0.3608550075985648
870,8.933836559234829,3.0315821301742227,-0.12827588772141296,0.17084207462357337,0.04893916654668272,-0.35401409213921536
871,8.879746573356757,2.8870730605799366,-0.15881980076528737,0.17177306047443158,0.04966720464770334,-0.34937615197460825
872,9.174328956195446,2.9493308133185354,-0.11193422324599495,0.1741549145616403,0.05049330401734718,-0.35029907698878604
873,9.382792577093817,2.987802629842226,-0.14844238713540026,0.17661892681994745,0.05100961137303904,-0.3530129928118599
874,9.100663460131722,2.746609147209385,-0.29812003077461857,0.17763616593869103,0.05118894421229809,-0.3520607833848812
875,8.743655089619931,3.1509235277659102,-0.053342227061962344,0.18010762363802335,0.05287730299002209,-0.343498437337392
876,8.55275793112034,3.090502549086098,-0.45971282679525394,0.1833203720917823,0.055288605522956676,-0.3371339118877056
877,8.818044238946419,3.1365834152444254,-0.5087047592488975,0.18567540669271387,0.058339771246805436,-0.3373906377850874
878,9.156613316360845,3.171464067527002,-0.375012199930339,0.18678996819314195,0.05988213416537355,-0.3422633968353488
879,9.085898678660326,2.9963196685340163,-0.40591448405264396,0.1870876152796695,0.05816942180053711,-0.34757969133302136
880,8.56770728372621,2.930679383950277,-0.1789144558296314,0.18958032445296705,0.0564412198790525,-0.3475732879660437
881,8.951563252032715,3.0843834842064877,-0.36087166120924613,0.18848554074749885,0.058422441423999605,-0.3446259713701015
882,9.211798519892266,3.1963970964415136,-0.7028335218219719,0.1899051270358838,0.0599193282561984,-0.3453770081474429
883,9.223943946833947,3.225814574287498,-0.907100560781924,0.19541257485040137,0.06163745675519852,-0.34875171104737246
884,9.132106480249155,3.1884767418537554,-0.7182927728609438,0.20372012842893353,0.06495646838888133,-0.3512356364400469
885,9.30579923194021,3.09561834779755,-0.17045594501873992,0.20456246769724204,0.06835930996632672,-0.3469448090601977
886,9.322121172046472,3.2614628539274855,-0.039059547479043055,0.20462812991477936,0.06809820359206978,-0.3397286147820967
887,9.015446380226019,3.274370663310491,-0.17014987193079667,0.20511352414314427,0.06724496896298479,-0.33675772792184944
888,8.780558601982355,3.327423638336211,-0.4743086652178643,0.20442530829140396,0.06701991034734152,-0.3364522700771182
889,8.945046365791699,3.5859111757182562,-0.7811778187574352,0.20174711003127108,0.06799696906676254,-0.33522039969280154
890,8.678011802942642,3.2283420527962896,-0.43774513342632754,0.20424593784867098,0.06968011669862322,-0.3309280823524968
891,8.406820055976503,3.2737688002812186,-0.23356175882221233,0.21108524294121866,0.07131756011268146,-0.32734789531922875
892,8.776034094270543,3.5087235959462926,-0.5011337901324564,0.2145215286431312,0.0740339592220505,-0.32599689240955076
893,9.300659679510389,3.586801267566804,-0.7222818829447835,0.21569234186712624,0.07618582167924559,-0.3272246570342958
894,9.334226822649368,3.2751166820518107,-0.4075712984516956,0.21719469852413573,0.0761665906391972,-0.3306315002461849
895,8.903122375238787,3.1311573450967285,-0.3818673552342279,0.2172165915357911,0.07616242230945777,-0.3340470422625757
896,8.796245835357578,3.2426739860495304,-0.4316133953572113,0.21794569424975274,0.0783674337330165,-0.3315383187773453
897,8.668012503754209,3.5611529440444034,-0.42106873920819343,0.22082717376092956,0.07985027030361892,-0.3270478375865216
898,8.501484515057994,3.778016260028391,-0.3971044699081057,0.2240798739217395,0.08129642315868656,-0.322834726886428
899,8.431978007317142,3.675993615420115,-0.4350534605864098,0.2261507592207883,0.08373349045237195,-0.32074316153191273
900,9.014642612020218,3.870217522026508,-0.5265128020225843,0.23119734301138906,0.08538381232446493,-0.32241269670050293
901,9.163936717061215,3.565280154306057,-0.4700660341741073,0.23478309223379287,0.08778980046352061,-0.32112974026224933
902,9.080446615091951,3.4188768192964742,-0.4531432273210576,0.23347971006812818,0.08931253422756041,-0.3173170289746902
903,8.874185176496841,3.4511518943603408,-0.4718679492746417,0.23233838385817893,0.09049432061518309,-0.31156828740066583
904,8.688397252676273,3.5541175715165085,-0.48906336206463946,0.23620707053662568,0.09216451651525356,-0.3058034269702293
905,8.913091200154666,3.7743564640625493,-0.5364463954428915,0.23791267856944542,0.09384784345224596,-0.3083471116827511
906,8.948378890291162,3.5993069305853105,-0.2215866388352551,0.23744053323930148,0.09481352169950925,-0.31164741875861
907,8.931762323860298,3.5878719061673148,-0.16440644486992445,0.2386914619545335,0.09512325754783996,-0.3145271238746843
908,8.881867327377677,3.671902875423738,-0.3993668432074182,0.24151573202689425,0.09540701554601329,-0.31518741348709667
909,8.829618432964603,3.683350986367247,-0.7272136427925202,0.24466178660435203,0.09653075682802387,-0.3130039510775377
910,9.005716901438083,3.711725289749827,-0.4883540101527052,0.2463739686290354,0.09991883043537524,-0.3138311179110947
911,8.780001057592747,3.8340425905787794,-0.018689367363768153,0.24731872778858432,0.10110005869793245,-0.3117083459942481
912,8.629207881853276,3.875600399422156,-0.20234994247481464,0.24867075876766787,0.10193946207527028,-0.3101906450791316
913,8.741108556076682,3.893822721836605,-0.5754739851285964,0.24942336253727862,0.10278384763583749,-0.30964308434884347
914,9.093673368214382,3.982898976433694,-0.5236823069201433,0.24919010779463857,0.10363808784646533,-0.30933577023360326
915,8.96039665846807,4.148819164218487,-0.3106716744280176,0.25336395185577726,0.10445080084824435,-0.30674516703037613
916,9.04080910665152,4.0914775765298765,-0.3229831218984544,0.2604443516127208,0.1074582243921046,-0.3004160658964226
917,8.850910867694093,4.08442239865136,-0.24672149027797072,0.2617672144846231,0.11138344313459447,-0.2962023265088344
918,8.65868190399485,4.066976683896948,-0.23794060286403573,0.2595666014422844,0.11346405775658663,-0.29301221139306144
919,8.778698918151859,3.9353679216580697,-0.4741284030636349,0.25805549114209586,0.11188268660522613,-0.2894761785994256
920,8.89321103699527,3.7411947545703823,-0.7215367924496998,0.25805806341725906,0.11102846757310507,-0.2911885250479889
921,8.80466801806508,3.8963797295451923,-0.5566915449863936,0.2609674161631226,0.11163123827482635,-0.28990374433163585
922,8.747915178793123,4.022186490187215,-0.5149848313131323,0.26431639066501933,0.11403788923081679,-0.28657506227958995
923,8.723978591390846,4.040189750343728,-0.43238198395954985,0.2670576456899238,0.11773590867885972,-0.2832208880500573
924,8.697835394090486,3.9580107917254623,-0.1829223865325092,0.2687580100908355,0.12146324112771537,-0.28179434393489
925,8.719486845132307,3.862600800564051,-0.6196669141046206,0.27043670849134704,0.12144517534933189,-0.282638197616853
926,8.603233872143353,4.2684322054121,-0.8542236502193973,0.27138594592798765,0.11994777576886378,-0.28572614247143485
927,8.58230198201501,4.210218598213319,-0.782012707093847,0.2711968093660458,0.11983164230268004,-0.2880822277253526
928,8.66995196542613,3.983628261346971,-0.5993378820284514,0.2734981024546932,0.12224190159089074,-0.28881239798594716
929,8.795648701749425,4.039394243696638,-0.4848901749931485,0.28055675032816924,0.12717714202135325,-0.28747634728258414
930,8.73165663533695,4.1873536370479405,-0.15332838652781597,0.2839169083144457,0.1314065870387623,-0.28316579883814713
931,8.605975375214028,4.197678887920138,-0.12221308645678727,0.28358608404087526,0.13270432840399668,-0.2766574810249647
932,8.5347474416321,4.231223648292749,-0.3329634455990294,0.28323976854955,0.13197306149796714,-0.2730211687663163
933,8.48212420783597,4.296330623117799,-0.6400509338848647,0.28259252641691,0.13027754217192566,-0.27196216697190495
934,8.4295465888238,4.3485017088617255,-0.8407782328918336,0.28132159451720445,0.12921567971605474,-0.2721847983323749
935,8.61623021113995,4.245429044482687,-0.5669554496885852,0.28303924851030204,0.13260271148553418,-0.2738656502744642
936,8.704599581731218,4.4534887332790465,-0.563179492572589,0.2884038578625471,0.13595349830024422,-0.2747802864830369
937,8.644903002131851,4.504751789119105,-0.40795814042114015,0.29165598820039595,0.13933205390751358,-0.2702744461980124
938,8.632441476597215,4.468718546875375,-0.30580379793224965,0.29206230646953607,0.14146794117991843,-0.2644908609477294
939,8.779696118070678,4.525090688828201,-0.5029587652205086,0.29078682538478345,0.14148412230373925,-0.2617246939731297
940,8.53960558318477,4.823844252602649,-0.823453258619636,0.292431901653126,0.14147231651954897,-0.2574456400351668
941,8.546429771960007,4.544335820888695,-0.4862334197992648,0.29922322402016166,0.14364104373746023,-0.25387189514326974
942,8.527773854606886,4.418155393400368,-0.30005653424410395,0.30050344731704054,0.14724922061718623,-0.2514979846482049
943,8.452067034582864,4.423398664045629,-0.19069396653511406,0.2989496596302159,0.14992921680697546,-0.2497864920888255
944,8.41562886705708,4.426050122710645,-0.05617598453952117,0.2989397171840959,0.1498244814657573,-0.24839911070792817
945,8.891960789977148,4.536450246862255,-0.5733613712076885,0.2989368202110073,0.1489721046253489,-0.2492569665495165
946,8.542456063773155,4.631724669694101,-0.6445385454131363,0.30115206500387937,0.14883979196364305,-0.25234058277068905
947,8.411145624277566,4.568259252038015,-0.644875675733174,0.3031499691703521,0.1509519128278547,-0.25092699778564587
948,8.444569668996337,4.562148200034782,-0.44687046315438006,0.3045152606066192,0.15402874476894268,-0.2472762684860474
949,8.454010748802357,4.7551991736983625,-0.019310976923318873,0.3059916453100745,0.1562493379048081,-0.2450177314198133
950,8.715752734730152,4.5888911778414965,-0.23437824669426047,0.31184676004688805,0.15618976609608254,-0.2449833283471123
951,8.43613160704979,4.926455769762341,-0.5311684392964682,0.31038448201935354,0.15844465164897528,-0.24348487298705418
952,8.435506300254266,4.857721518160248,-0.6045490350983229,0.31313342946465295,0.16097279935827008,-0.24228331208747927
953,8.54919061865447,4.536445538289137,-0.5153476103687342,0.317433404189675,0.16316353474629894,-0.2420366842452117
954,8.505225456893989,4.324749137012132,-0.41428841941598943,0.3183802636713103,0.1647488978942593,-0.24233534859749686
955,8.486460865991083,4.501955657562551,-0.4879150520896971,0.3141840661127578,0.16564695708345878,-0.2389402121077106
956,8.258327553255633,4.84131361622798,-0.7024110624036077,0.3136331012076872,0.16501573207298895,-0.2340322275800347
957,8.231908769104301,4.890646128452008,-0.8420871432738966,0.31465064759598416,0.16469358486911254,-0.2294401480421775
958,8.327301492123171,4.858329112310695,-0.730473157957398,0.31694834947388895,0.1662831411146875,-0.2257945857146469
959,8.37862928987257,4.939880930866093,-0.3948274780897409,0.3202080967425202,0.17029311076680603,-0.2228657827559464
960,8.301165209478498,4.631631946600343,-0.7222613956571982,0.32270981639501073,0.17282863621732714,-0.21771480799179063
961,8.208487300324487,4.652651743970578,-0.7209776961240324,0.3215108752932374,0.17315847327383505,-0.21184729309510583
962,8.25464073676065,4.822219351060593,-0.8261026776395419,0.32245443920313327,0.1736872548961319,-0.209082181704715
963,8.412686365497581,4.8624626405731295,-0.7751916577392247,0.3265615763503369,0.17514254909446808,-0.20884375170263483
964,8.558641493048318,4.59699841057724,-0.3653468162951537,0.331662991609126,0.17764484592076665,-0.20954560514790518
965,8.306522374250289,4.372356532122527,-0.25292551157191767,0.3258329915549832,0.18025922211268988,-0.2095674921052563
966,8.203333874776664,4.450092725171137,-0.3689858927927708,0.32363462980092594,0.17909345278348102,-0.2080840140392023
967,8.157838285217093,4.573632584167401,-0.5217762770808165,0.32668268535619416,0.17789672392112288,-0.20690153658188898
