,acc_x,acc_y,acc_z,gyr_x,gyr_y,gyr_z
0,0.1328514024125224,-9.488105666280292,-0.1834133505099282,0.0,0.0,0.0
1,0.1328514024125224,-9.488105666280292,-0.1834133505099282,0.0,0.0,0.0
2,0.1328514024125224,-9.488105666280292,-0.1834133505099282,0.0,0.0,0.0
3,0.1328514024125224,-9.488105666280292,-0.1834133505099282,0.0,0.0,0.0
4,0.1328514024125224,-9.488105666280292,-0.1834133505099282,0.0,0.0,0.0
5,0.1328514024125224,-9.488105666280292,-0.1834133505099282,0.0,0.0,0.0
6,0.1328514024125224,-9.488105666280292,-0.1834133505099282,0.0,0.0,0.0
7,0.1328514024125224,-9.488105666280292,-0.1834133505099282,0.0,0.0,0.0
8,0.1328514024125224,-9.488105666280292,-0.1834133505099282,0.0,0.0,0.0
9,0.1328514024125224,-9.488105666280292,-0.1834133505099282,0.0,0.0,0.0
10,0.1328514024125224,-9.488105666280292,-0.1834133505099282,0.0,0.0,0.0
11,0.1328514024125224,-9.488105666280292,-0.1834133505099282,0.0,0.0,0.0
12,0.1328514024125224,-9.488105666280292,-0.1834133505099282,0.0,0.0,0.0
13,0.1328514024125224,-9.488105666280292,-0.1834133505099282,0.0,0.0,0.0
14,0.1222224136853104,-9.50316957401116,-0.17761316704127908,-0.0004679621613535184,-0.00048186020242969434,0.0004685649241354204
15,0.10930492346930201,-9.49813858085383,-0.18808775252522897,-0.0007912835126688912,-0.0005494587460373614,0.000791360497658725
16,0.10904668812777742,-9.427384167094164,-0.2424206819607781,-4.951816293022833e-05,0.0010765787213759986,4.557767631472306e-05
17,0.08897302039152072,-9.460349081327417,-0.24633039730150613,-0.0008902702078528939,0.001073099498947559,0.0008843506250948484
18,0.0522463933850361,-9.503677044974904,-0.18095782862596088,-0.0010457302612492424,0.001774666047339256,0.0003540395298527087
19,0.09179813577450999,-9.500575356636592,-0.18173147430725461,-0.0001063849077684779,0.0021546628729794933,-8.72565232475547e-06
20,0.1678538589481242,-9.47457615986406,-0.21276532441136878,0.0010464376947565228,0.0016181504976823914,-0.0005229038783078848
21,0.1848582235839039,-9.483402581385187,-0.17319896549062375,0.0010043251367758863,9.576467934819112e-06,-0.002109305948170461
22,0.18534782523600768,-9.506522591154903,-0.20727708793105432,0.00016910835371803537,1.0247931732867294e-05,-0.0021193369969359126
23,0.19659907671478483,-9.489993078525094,-0.22531518934168127,-0.0006751907102801497,0.000706033129641748,-0.0007491412027816505
24,0.18070109162212952,-9.48082088651617,-0.21927706707500783,-9.918548174599467e-05,0.0010768628801123953,-4.913460143059214e-06
25,0.15378881222268237,-9.49096159223009,-0.18860442878339148,0.0010430329331685,0.001075944605563,8.804713214138846e-06
26,0.15459278645751803,-9.513373007568736,-0.1422212870817318,0.0009864698321249206,0.001075710534636903,6.523466701679147e-05
27,0.18690649549637026,-9.505492041778098,-0.14568174177471566,0.0001457177872022865,0.0010722313122084636,0.000904007615796894
28,0.20880303891462784,-9.494393938275783,-0.16331357001128677,0.0006810064260569692,0.001074446457861976,0.0003699790246420011
29,0.18907913185244996,-9.478672778126159,-0.19537563921544074,0.0015222509378260084,0.0005870104373267807,-0.00046709101181107007
30,0.14621915182750447,-9.463461628604115,-0.2123537194097932,0.001826251766712408,3.7213099159739256e-06,-0.0010382527718590861
31,0.12272564531424533,-9.458131731064542,-0.181331443764614,0.0010504373697020923,6.630960924776371e-05,-0.0011085571848741837
32,0.16923780226410828,-9.485664377885557,-0.1773110350907155,0.0010558971851664684,0.0009326235304446378,-0.0019611394679911686
33,0.1501032073236097,-9.476395055011787,-0.21405092188423336,0.0017444844531749675,0.0017956329986529786,-0.002106592659588783
34,0.17663359092902065,-9.478076177957464,-0.24165641450101452,0.001614997891549353,0.0016638503944083876,-0.0011333401248490047
35,0.22409674910701746,-9.47719029403327,-0.230770090288728,0.0005006205572892057,0.001076380672320061,2.2902787537568928e-06
36,0.2192889428195693,-9.44475574208171,-0.1734943381438518,-0.000917069062646892,0.0010118746391818588,4.9813441045514094e-05
37,0.1737559891739138,-9.448705562421116,-0.1888346470299362,0.0007479098854334988,0.0001442216877468622,0.0009216608226347072
38,0.18125463920465845,-9.467687794785556,-0.19922203311400882,0.0010362204555598,-6.022564523355389e-06,0.0010726313895232
39,0.16251127185762204,-9.484144481196385,-0.18545247292114458,0.0005599457556378607,-8.371561755639606e-07,8.578559124152395e-05
40,0.11568341219715615,-9.49451545013256,-0.17269159860665872,5.092299871012785e-06,3.8185255643345585e-06,-0.0007808780492823216
41,0.07657701389280247,-9.498285297288206,-0.1901832683622514,4.365084324980491e-07,6.932687643953745e-05,-6.816452715074097e-05
42,0.1451212451873377,-9.471699915636444,-0.1358097474726695,5.891126467872221e-06,0.000935636900278419,-0.0009199498112090182
43,0.1697200610136082,-9.455758015503474,-0.19115372976367567,1.141708613197072e-05,0.0010854199941158125,-0.0017699197604557682
44,0.17427146639953395,-9.437114555884913,-0.21498381564951446,0.000503176189241843,0.0010891814160260086,-0.0026132172061768748
45,0.16595001086956981,-9.42547133248571,-0.19737245749949395,0.0007818105154260576,0.0008016752363967104,-0.002608919430941095
46,0.1476697049388339,-9.437476805409586,-0.17528842916287599,-6.440770320965456e-05,4.540937245853994e-06,-0.0009178826142263563
47,0.12759603720257714,-9.478312414244979,-0.1658353030842772,-0.0009106950099970522,-3.0889714091102925e-06,0.0007696943320993648
48,0.18563804378255716,-9.47392222821341,-0.16427120357701014,-0.0003431787460255062,0.0007222221858754629,-0.00036461149586158707
49,0.18529299452061399,-9.45919823639301,-0.17937244599093927,3.6138905457421954e-06,0.0005739631234542106,-0.0005643399345467419
50,0.1659500294404079,-9.44113894122881,-0.19277393913080954,-0.00028372204818320204,-1.1741061106522527e-06,0.000283054178013281
51,0.20411487815872803,-9.428514346545558,-0.1781805092491784,-0.0009746319920718487,-7.962443047284325e-05,0.0008232363190957132
52,0.16641555094673352,-9.519039317523408,-0.12514227559307264,-0.00012272358216133206,-0.0009299992758457916,-0.0017109603373216212
53,0.14598087733714776,-9.507132741632983,-0.14283671807251214,9.21419872324792e-06,-0.0003460408229460413,-0.001406667531836139
54,0.18436793942879443,-9.50120627679727,-0.1839094452737029,0.0005002334785600262,4.787348451244152e-06,-0.001054178402644035
55,0.22810947382375416,-9.484926664340986,-0.2144760641987087,0.0007627519722045878,3.156440457173062e-06,-0.0007609564850630495
56,0.21384987157956897,-9.423668690986752,-0.20927680669297472,-7.749402505991462e-05,8.004841101467241e-05,-1.2072085986079472e-06
57,0.2564452153126014,-9.451202582800313,-0.18103047019972163,-0.0009127914519471389,0.0009428792124251119,-1.4219543876762892e-05
58,0.23954785559304326,-9.464226928935512,-0.18621119201905967,-0.0003337770578282974,0.0010805577334305622,-0.0007240388747956568
59,0.21571825055181354,-9.469297238587561,-0.18611346324233424,0.0005037300405475666,0.0005686700315292134,-0.0010560856517034655
60,0.1768801388485391,-9.454107232960187,-0.16780927134772183,0.00018288947588423836,0.00030331625252062337,-0.0010590208150918214
61,0.11358716940449139,-9.415508821235143,-0.13654367132244113,-0.001838332591717178,0.0011663727165076292,-0.0009215553482358162
62,0.1356192437491634,-9.452395699099604,-0.16762342905952193,0.0006569507552866152,0.0020190251990745683,0.0008031711261341275
63,0.09910468235488287,-9.471362051798302,-0.1995959735276696,0.00032768315936395796,0.0021491244025714706,0.0010566738183779702
64,0.14567969234151568,-9.476183545863627,-0.21422871103385185,-3.749922596760942e-06,0.0016348339173622409,0.0005458811146241768
65,0.22142541247267675,-9.474388978144868,-0.19846532675438622,0.00029433981490896053,0.0010780016835869393,-0.0002974708738202602
66,0.23394425298942353,-9.472199261760682,-0.15293796592899028,0.0010493855556804725,0.0010807082000246567,-0.0009653373445281915
67,0.23590265959783882,-9.45498149482223,-0.1509877179211024,0.001043850293815733,0.0010765575137981417,-0.00011653334698265652
68,0.22200347772969226,-9.450766436498878,-0.16756562329220076,0.0010478195699996458,0.0003446332132708379,-0.0007121201672503401
69,0.16517926302113195,-9.494527509002264,-0.17565969590472308,0.0010533899514808833,6.8521994855017865e-06,-0.001560222688529464
70,0.12498600088802947,-9.512705410584026,-0.1715843845399864,0.0007589227470195152,0.0003139009207657733,-0.0018121361112155413
71,0.15749187154090036,-9.437139527545538,-0.16267325017491543,0.00018200447324547364,0.0009899718921930238,-0.0008822576314527704
72,0.14182461867357807,-9.425830384025144,-0.18198162700140078,0.0018422324005720116,0.00011816762404910263,0.0008384031665071693
73,0.08170249720138617,-9.448244975326185,-0.14788839570344453,0.0013688997762967812,0.0007357821248227796,0.0003469440813969729
74,0.06173831530575017,-9.446698277478388,-0.14394094895069726,0.0005389279184881336,0.0005549856874524682,-0.0005112528035021073
75,0.09604330477524131,-9.437849356606405,-0.15491508905154727,0.00030254272611702815,1.965301772008922e-06,-0.00044755598283167535
76,0.1640907249323402,-9.447965724470984,-0.15255513536232726,0.001038035030907867,8.998607342942364e-05,0.0007926908294748706
77,0.164580326584444,-9.440586792657413,-0.19162785626208773,0.001054565370101722,0.0009646013670793101,-0.001757499448733282
78,0.22491812094621488,-9.443775349933375,-0.22086847791381126,0.0017717551816006467,0.0010821623970558491,-0.0013723878621142776
79,0.20924959521435335,-9.448699514434482,-0.22253661315810203,0.0015791748972437084,0.0005506077227565661,-0.0005236973065903576
80,0.190948893299274,-9.450410678474089,-0.20627259467733688,0.0010471536915214593,2.1758609578877006e-06,-0.00060392423099551
81,0.25012350415606543,-9.448756192055336,-0.1902805386629551,0.0010569665369849,9.534147431644464e-06,-0.0021086737189537
82,0.2060593554667218,-9.465003505838382,-0.19620562463884575,0.0010569665369849,9.534147431644464e-06,-0.0021086737189537
83,0.183596090456653,-9.479116198935284,-0.18330490107958233,0.00032485211559893124,2.930261134318264e-06,-0.0006480878010235075
84,0.16057996186227824,-9.48441060008329,-0.2003857442482923,-6.873958195128044e-06,0.0005260994215578172,0.0010446298325661853
85,0.12307499993375143,-9.479725960787988,-0.20929974448611746,-9.866497602361925e-06,0.0010694602292455665,0.0014938085684293547
86,0.07569872089120179,-9.467765660332867,-0.17236243312337504,5.539448683474023e-07,0.0010772741300318401,-0.00010411280212961952
87,0.10948123488636564,-9.461851901320564,-0.1619747040703266,6.089206733102183e-06,0.001081424816258355,-0.0009529167996752178
88,0.07601463046093317,-9.474775738309555,-0.15072460345472655,6.812477608747659e-06,0.0010819671700864,-0.0010638266763091
89,0.15029394541644076,-9.466383951438353,-0.1531387329557622,6.762399495557719e-06,0.001617349892215751,-0.0010656779922073806
90,0.2473989359973021,-9.450542015717856,-0.1722665163979945,0.0006275300727130058,0.001838705066722381,-0.0010589894089031659
91,0.25534907466360024,-9.446312544746515,-0.197219415730244,0.0020933711741152284,0.0011855125070905142,-0.0009351278109927796
92,0.2220561623205406,-9.436484758930476,-0.16362766098458348,0.0020877551926991285,0.0020443306977606037,-8.930789928993433e-05
93,0.19603428469810352,-9.458025083975476,-0.1641040755717742,0.0013518930260388927,0.002149860647224588,0.0007503476737497947
94,0.1465983876441509,-9.46413961049865,-0.16924480834066946,0.0005143546127049603,0.0016099244079799124,0.001060779155204983
95,0.12090557680989818,-9.455472488907125,-0.17309969559233507,0.00030886358986321425,0.0010729064464994257,0.0007412458517245923
96,0.1539429338516589,-9.444051015390174,-0.1737660608573601,0.0009364604548235901,0.0009662070237034341,0.0001155144631780565
97,0.1514949255911398,-9.445527548748414,-0.16535917604438263,9.578905373033285e-05,0.0001005684636626339,0.0009572686984708536
98,0.09145525595759782,-9.459113411015878,-0.16476924518522273,2.7340832098660223e-06,0.0007589352428370804,-0.0004327302617968747
99,0.08436646039428067,-9.457040680868808,-0.17304386102374497,0.000532025750815377,0.0016242620925562645,-0.001059394873367558
100,0.09632441094761966,-9.460439213412238,-0.18175562085125413,0.0010477728200680016,0.0018294539600339295,-0.0007313818955947401
101,0.10035050915065248,-9.481984773187632,-0.18013323525323494,0.000935064343806092,0.0009641604205653431,-0.0002146443691983627
102,0.2349909634792025,-9.453902627048775,-0.15490634070250586,0.00011100392573608987,0.00011097781656203086,-0.0019200991256010222
103,0.231001433280848,-9.433674973962866,-0.18206131816941995,1.376175018422388e-05,0.0007708685358350649,-0.0021238316140517097
104,0.209409723821746,-9.479279802764543,-0.20484184029652217,1.0275310643549308e-05,0.0005386536442141916,-0.0015851170905183802
105,0.1723676233871767,-9.51782209599941,-0.20952249910754125,0.00032780967103308314,4.925966768098479e-06,-0.0010562492322259015
106,0.1261232343659443,-9.48374705255824,-0.1994991512759372,0.0010492762676569687,0.0002371416134493505,-0.0009335644712630234
107,0.18487543261840322,-9.442407231008831,-0.21338679347424394,0.0010435796424115454,0.001958119141731801,-9.072584607283455e-05
108,0.12212171385101012,-9.48394662453699,-0.20571548401838832,0.0002929788539468138,0.0006179361383426661,0.0015068252511757608
109,0.0846665460047996,-9.511645283623363,-0.19372664486286262,0.0005255893696230405,-5.507017253508517e-06,0.0010450414731199178
110,0.08872625880486529,-9.507455329992958,-0.18049224740381942,0.0010431023256224153,0.0003340731871864581,1.1370052539784937e-05
111,0.1299315653384189,-9.478201327985518,-0.17171455792272447,0.0009265040219082187,0.001076038287762553,7.405187707527465e-06
112,0.22295587923814558,-9.468825309572535,-0.1939406564553237,9.128723885033546e-05,0.0010767097515606283,-2.6258610579459903e-06
113,0.16685783169761875,-9.475706152742745,-0.1911034000734019,0.0007487295291109737,0.00031205838144921996,-0.0007480642428789137
114,0.14835708624262006,-9.473834921490184,-0.16646295357986357,0.0005141348931262198,4.776172554384556e-06,-0.0010540114450705634
115,0.16954659894709334,-9.470014262675116,-0.1505778877168869,0.0003349082833721091,4.920259912945757e-06,-0.0010561639770825851
116,0.20065118699284046,-9.466523271123746,-0.16555223449558848,0.0008098788200641049,0.00012849012247911613,-0.0010508880039032244
117,0.2128912282954359,-9.42765782592398,-0.18736642165872147,-0.0008606353898810105,0.0009919923876876072,-0.0010739313879468183
118,0.12743254122268954,-9.432841835044151,-0.1693295655972674,0.00044852883656697093,0.0010741757647937814,0.0004606701552296909
119,0.09342130843958531,-9.470507454971955,-0.1906087438345192,-4.280278763870197e-05,0.001071628045910259,0.0010559499661797573
120,0.09002390289155093,-9.493267493148435,-0.2234998715351712,-0.0007208345364948567,0.0014130829169119554,0.0013839032694930571
121,0.0847073267388216,-9.475810660407632,-0.22903192903215888,0.00011288387703676579,0.002018828675503933,0.0016128873044000203
122,0.10233298621455919,-9.488103018257023,-0.18648241647015915,0.0009703328219629447,0.0011717988744313291,-0.0017709075492916273
123,0.15693473022383486,-9.480481273248675,-0.16884446005094939,0.00030601088576319424,0.0003117700966446032,-0.002118735466229301
124,0.18226425061172308,-9.479589742224046,-0.1871121332242311,0.000553241360610593,7.235141609060606e-06,-0.0015623178863939857
125,0.17801884916784286,-9.476224102297206,-0.2210315051675576,0.000377638672639882,3.218843093300011e-06,-0.0007150791421160856
126,0.16422964804695286,-9.466531962210667,-0.2410930254700688,-0.0007887799927423296,6.341314261096037e-07,-9.473337620754615e-06
127,0.19360574717318196,-9.482264013970859,-0.20199398911361136,0.0008816535733734625,-7.087961699867528e-07,1.0588759910192054e-05
128,0.2013105145994837,-9.426904574018408,-0.19071293922633598,0.00028858406064953746,0.0007785827105449747,7.737155199480458e-07
129,0.178181261618152,-9.41963643265328,-0.17812289307761003,0.0005464591552710559,0.0010763438208585916,2.8408055403637627e-06
130,0.13860275193247304,-9.43739742204022,-0.17370172477397036,0.0010430329331685,0.001075944605563,8.804713214138846e-06
131,0.10181438221646441,-9.4491852023983,-0.17614013268885248,0.0009114404312642664,0.001075400045978751,0.00014008745171728714
132,0.09104314587018028,-9.463454260094178,-0.13310487624305004,7.068838634162839e-05,0.0010719208235503114,0.0009788604004973935
133,0.04827851739367241,-9.490680691269144,-0.14256481901467824,-0.000760016272630606,0.001075975760750747,0.00027691828142097205
134,0.10834938291025964,-9.478693075115304,-0.200053851205919,-0.0004894263172749102,0.000512058712576333,-0.0005667394152839388
135,0.17385951284469892,-9.461635483329824,-0.2113916201233933,9.183149395992274e-06,6.88610090095221e-06,-0.0014081888278869854
136,0.17278571734092008,-9.465798990266844,-0.1498799447260263,1.3819919824393081e-05,0.0001489796842932694,-0.002121681166025909
137,0.1967761982940071,-9.46087218056117,-0.2215717993549842,1.3739275995012494e-05,0.00101113902190562,-0.0021246624525385997
138,0.1962128498677887,-9.48824846965748,-0.18682133768075157,8.68021100600261e-06,0.001083367713633599,-0.0013502340067434305
139,0.16601278823592563,-9.496582975005207,-0.1500202752982801,0.0005641436902267967,0.001084276102173441,-0.0016203708409456142
140,0.13329831253148722,-9.489772859570689,-0.14217795152898477,0.0007088307031685599,0.0010848755168109058,-0.0017648535308225426
141,0.1223881215232768,-9.476828968981454,-0.16964283436931793,0.00014190944324985212,0.0009375302053811496,-0.0006413473067823211
142,0.14050338265111825,-9.460589903274023,-0.1983394743604184,0.0009605958871138647,6.224344793324558e-05,0.0019188740201913784
143,0.0953781903073576,-9.446173483846525,-0.21664195900550048,0.0010394470045531957,-3.603095888740547e-06,0.0005778566614595714
144,0.078429511809479,-9.46046482728071,-0.19368785982122505,0.0010431874531267491,-0.0005760209060383815,1.4517094074956762e-05
145,0.10873300388578805,-9.48055185266045,-0.1710966526188289,0.0006939097221577272,-0.0007167826242528134,1.0809785433119466e-05
146,0.16254760988463907,-9.48406797808972,-0.17582981437318979,9.232830119825351e-07,0.00014663709226447365,-0.000144178543305421
147,0.1248482826726446,-9.463911306224981,-0.17488997218015398,6.377901047356723e-06,0.0010129471161033578,-0.0009959638273637009
148,0.1885327061200572,-9.448702401583066,-0.1652534196007998,0.0007858281875019815,-0.0004979471676939581,-0.0026121981316101226
149,0.2350253302067464,-9.474883505859825,-0.20559782792568576,0.0010601558402726103,9.284031968655312e-05,-0.0025991772982270236
150,0.2530884664486142,-9.503038395328975,-0.2421937186716162,0.0014077308350929707,0.0007200561170099251,-0.001747979183779067
151,0.23700316058357726,-9.504609112819377,-0.23346279499422035,0.0016592538093761883,3.855566177310921e-06,-0.0010402584363616977
152,0.16062530285538063,-9.497254613984499,-0.19494069737322137,-0.00084718078090838,5.870588053894961e-06,-0.0010703610014832308
153,0.129062274121016,-9.476241358370967,-0.16099370838536353,-0.0010466052141259918,0.0015933633274639006,0.0004914245919061914
154,0.11471756574895274,-9.455439029683097,-0.14478336768018082,-0.0004896853360505455,0.002146971502461836,0.0016209270522905103
155,0.10709285382606466,-9.470326612625122,-0.167021050831548,0.00034711560561609395,0.001779230673665973,0.0013945905273199243
156,0.11332617141876382,-9.511056952427566,-0.21612167939602467,0.0010440169113488805,0.0010766824540659793,-0.00014208329053591663
157,0.1823600043654014,-9.453480555155817,-0.2023430613744743,0.0010495521732136195,0.0010808331402924938,-0.0009908872880814363
158,0.15862368811714098,-9.427460263508884,-0.1646705520907371,0.00027424845349893724,0.0002809546532187596,-0.0010578465375228017
159,0.211996252271179,-9.442293023578742,-0.16439977523090932,0.0011432126463204084,-0.0005819032142360522,-0.0010444298605483285
160,0.24615293222752266,-9.46803292063058,-0.1839158112050185,0.0017339491220206746,-0.0007014378472121522,-0.0010369234817122048
161,0.20721235681596414,-9.482846021456547,-0.19967902232884013,0.0008990186442923549,0.00016214966640578163,-0.0012045836368632656
162,0.1890970956881226,-9.491214392561846,-0.19077294747201828,6.926167669881951e-05,0.001029135051400656,-0.0020671969687457072
163,0.22443167303444822,-9.46330493667301,-0.21096920288217938,0.000787959622081683,0.0002781915351564887,-0.0013200403271066705
164,0.13263202425992068,-9.457066122756812,-0.18421930567058037,0.00046727759733188674,-3.7169080641038055e-06,0.0006882092520420788
165,0.05749931266331855,-9.464792279884062,-0.16169186289662107,-0.0003749098131980395,-8.272457575491149e-06,0.0017470881497669384
166,0.08274258321637967,-9.473624451603811,-0.17485658159684148,-0.0007378732676841237,-3.822345841275591e-06,0.0008932098434535942
167,0.10918107242998616,-9.471648374253595,-0.191659678002484,0.0009380955602964279,-1.014587210865716e-06,6.44679434389303e-05
168,0.10303646747744369,-9.463688504761294,-0.20246145528345252,0.0010535152241210998,6.9461367616488155e-06,-0.0015794326049531396
169,0.1523464902038652,-9.437701385974531,-0.16079050614418056,0.0016324052095865109,0.000602572775781448,-0.002103814254003828
170,0.17266513447158535,-9.439205157677232,-0.12984401963597839,0.0017311620833638276,0.0010839475796359974,-0.0017309109210528236
171,0.13606423751606725,-9.478920235750142,-0.1450986495928118,0.00088980172666056,0.0007519586683175194,-0.0008903644828732184
172,0.15613790525232402,-9.488752223416023,-0.17078491563437428,4.9210969396698525e-05,-0.000975839229335659,-4.562896106778872e-05
173,0.17298459110312392,-9.476815832289649,-0.17183403846815234,0.0007864452859067577,-0.0002656264810183821,1.0361331349656273e-05
174,0.16623196410240948,-9.447862977538342,-0.16008862786258043,0.001625958558694864,0.0005987358828217303,-0.0005704970456933411
175,0.16647485688993854,-9.433561074604855,-0.17357605732004383,0.0017182125152965242,0.0010769040293358435,-0.00028998272258434196
176,0.1719148797278005,-9.4465408398529,-0.20879596220653096,0.001198942369594432,0.0010706297578772796,0.0010708634670565866
177,0.10875626660640862,-9.460334630911435,-0.17715565963951932,0.002034943393763168,0.0010699576635967894,0.0010809039346472158
178,0.10301932612668294,-9.453173053405317,-0.23531534825424671,0.0012947566909221261,0.0010744827651270306,0.0002691303833419352
179,0.14253863993418725,-9.472565672228175,-0.21827041137203237,0.0010468903932742881,0.0010788371708872204,-0.0005827169958169651
180,0.15688677471242463,-9.490602218461948,-0.1771712210626192,0.001052464107803569,0.0006967845959029459,-0.0014305425399436522
181,0.14129844756300075,-9.487481709571341,-0.15746467375619602,0.0010569504877951854,0.00018111527012592212,-0.0021092670344402984
182,0.22061391520382032,-9.46581208831642,-0.1698279683764949,0.001056869843965862,0.0010432746077383359,-0.002112248320952989
183,0.22364337274945886,-9.439960477958817,-0.2080668092861448,0.0010463430451145375,0.0010784267349361696,-0.0004987839647493557
184,0.20858975777761285,-9.448038954532088,-0.21190797018843904,0.0016292415791309843,0.00047098068308541616,1.793476011400827e-05
185,0.18797968287429415,-9.465112609885686,-0.18531256161267454,0.0017092067655999118,-1.37409890433177e-06,2.052776807625669e-05
186,0.17507129701080365,-9.471547439705716,-0.15579054001873252,0.0008722400356392124,-1.545812891094082e-06,0.0001830194940768769
187,0.19024894822602212,-9.462688083932198,-0.18694847197884784,3.14879907165516e-05,-5.025035319552144e-06,0.0010217924428569923
188,0.10356845577970944,-9.438838700350363,-0.13607085074525221,0.0015932544994539267,-2.505035021268856e-06,0.0002692229504521088
189,0.1128577533227966,-9.446163195956172,-0.1627846722319975,0.002083285382630559,0.000603550629128702,0.0006217009099760758
190,0.13007369157818033,-9.476922423660795,-0.18811005961379731,0.0017011667810529643,0.0010721226116451308,0.0006894283321893336
191,0.12079658782289934,-9.499102285417834,-0.17475497393637116,0.00087203020687985,0.0008988986655962262,-0.00034509823675381654
192,0.16583993981645118,-9.442517350550688,-0.17482914757512497,4.796978880983798e-05,4.571606159290375e-05,-0.0020505529931564965
193,0.16395131340254943,-9.460450743826758,-0.1904410405006588,0.0008143733053742564,0.0008361732920355021,-0.002114444148888146
194,0.19929516586551504,-9.472166744601752,-0.19830245789442166,0.0010529341021503068,0.0010833691225458375,-0.0015094887329623846
195,0.22814741388582374,-9.458272116109422,-0.181123248122683,0.0014350914147696584,0.0010808189201717655,-0.001046672883473491
196,0.2267592995266428,-9.435690388537774,-0.15277412280962302,0.0019158709814045293,0.0008969799930997996,-0.0008605090995744093
197,0.21109204665932044,-9.475540759931283,-0.17694270341998664,0.0010744153392003573,3.134206354143253e-05,-1.8764283106737284e-05
198,0.1110441263016354,-9.45242502805508,-0.16459386964251324,0.0010377265217070724,0.0008252729786782598,0.0008269068294167213
199,0.0800888409448923,-9.44862789904212,-0.16594671427546978,0.00043992714625053426,0.00045575591414648737,0.0010638752170978815
200,0.09338230411713605,-9.466351011026571,-0.16666175818165302,-6.950691996104937e-06,0.0003956762598910169,0.001058717088978575
201,0.11301669243472577,-9.483616201071847,-0.16920854224411874,-5.818235665230757e-06,0.0010724958697399469,0.0008730283778428827
202,0.09196382139426136,-9.445745175133979,-0.2063627516098474,-2.829738004759776e-07,0.0010766465559664618,2.4224380297303116e-05
203,0.18833423091571624,-9.466350563381633,-0.2371552230902772,-0.0007916750188926773,0.00025570662985252904,-0.0024738803679627544
204,0.24826848849630515,-9.475182446002204,-0.22374140182052915,0.00016925748589289024,9.466607827907866e-06,-0.001959739711708412
205,0.23283504311191514,-9.46524394778298,-0.1975167792650867,0.0006608016653654851,-0.0003979143015505654,-0.0014495144718805952
206,0.15807253690482653,-9.454698835321144,-0.1787005936893939,1.271325641589602e-05,-0.001067325551088285,-0.001930344421658205
207,0.11156037995496318,-9.495542847856216,-0.16826969877556353,7.172797122160248e-06,-0.0010714801346727333,-0.0010807434250539058
208,0.17585406717811977,-9.479014213392052,-0.19198516277901903,1.480723728838984e-06,0.0005992402217388282,-0.00023770815928717825
209,0.2069899214548744,-9.447655204279663,-0.17674190015357583,0.0006033063099433224,0.00045348647315827874,5.676485833232424e-06
210,0.16895733332794535,-9.414525901321788,-0.14241166158408014,0.0010431336522800003,-8.386163906661393e-07,1.2528154063927203e-05
211,0.10386347776075257,-9.410101572853831,-0.12730248970586355,0.0008543577871813259,0.00019194418541435807,0.00020017225520010455
212,0.15723005784006816,-9.492234984740232,-0.1929054141852517,1.3525098429304683e-05,0.00105062430059824,0.001035963917467509
213,0.1432490939317141,-9.461612757249199,-0.17961478822340973,0.0016287811176612654,0.0010743378322691335,0.00024789075599472164
214,0.15212941155419932,-9.445316858410822,-0.18155555752532948,0.0020871460536666,0.0010751052017391,2.1344630803008706e-05
215,0.18895520279182765,-9.440636528196354,-0.19113421385121776,0.0016930810608817878,0.0010793936687106518,-0.000794775987751555
216,0.24075052937016156,-9.444979841758792,-0.19836349193902397,0.0006747371362332511,0.0010866245777426998,-0.0021169865688263614
217,0.2740434417132216,-9.46071064852644,-0.19337918911723115,-0.0009956964298825607,0.0010879675053387702,-0.0021370486663572644
218,0.28862716684888706,-9.454275735063568,-0.1467753573454473,-0.0002218104569535384,0.00023443581827959278,-0.0004605681423337162
219,0.1940414995864329,-9.444542655992734,-0.149235208981702,0.0006144930250827948,2.5429113469427334e-06,-0.0006130465334769951
220,0.14269570868452514,-9.441560371219117,-0.17002821606772792,0.0006421420571215016,0.0004161835264882631,-0.00023568866542816159
221,0.14266718277282375,-9.4561412254115,-0.1794802011651177,0.0001863275409661614,0.0008695832330958434,0.0012573771043676949
222,0.0168395581821409,-9.500945796346677,-0.15177075460656392,0.0010160845085596835,2.5978481009688993e-06,0.0021199904362502165
223,0.08325146699924242,-9.49001969414855,-0.1824599229503799,0.0010347529791674042,-7.1229702852536465e-06,0.0012976613625567692
224,0.09734674772614971,-9.47748591952446,-0.20939355647140923,0.00042216447989337877,0.000628274145295904,0.0010630655726324503
225,0.12384535037445642,-9.463730941132233,-0.2115435455837158,0.00039910511533053226,0.0006520936009356972,0.0010627063518646924
226,0.17700538964645018,-9.452574570216475,-0.1910493821683292,0.0010401615658410107,-3.0672730554684944e-06,0.0004682823554199417
227,0.20589188712057577,-9.453057306809091,-0.17620322338811337,0.0010567725488641894,9.38868298200941e-06,-0.0020789266362755353
228,0.23381061672502002,-9.473959643875473,-0.1872231662359431,-0.0005940388990511064,0.0008629521700987103,-0.0021314479953376698
229,0.26207991456499447,-9.445637686135303,-0.1971676843945351,-0.000415892389580622,0.0004469594056864144,-0.0014996508979456175
230,0.2587805208910946,-9.442110761655336,-0.20487176743114138,0.00041646318516944114,0.0008509376857802368,-0.001058109238788478
231,0.21947567698272807,-9.472481141540989,-0.20193513990545894,0.001048527995868868,0.0019495057760978514,-0.0008493110839803235
232,0.17051551177234564,-9.471512867122533,-0.17130203869039778,0.001043073453555409,0.0010823862129747221,2.4769994079732106e-06
233,0.12447113372880843,-9.501304302792656,-0.1779153941607926,0.00020310736226636242,0.00021261293068891715,0.00168759530366959
234,0.08682251648057895,-9.484865793216079,-0.17568839494949046,-0.0006266919097089027,-3.6973626541360337e-06,0.0008507513446461805
235,0.10486127079725005,-9.457260446020022,-0.18471865562668666,-0.0006299951117427435,0.00042701325566202585,-9.04066459790602e-06
236,0.15938577230562073,-9.443077384742208,-0.18487869112146504,0.0002065211836534299,0.0010776382701961015,-0.00020985896405343959
237,0.16036497560982835,-9.454883115397282,-0.11267056729842373,0.0010472732285760527,0.001081117492624541,-0.0010486319128335062
238,0.20136387881749945,-9.44951371739207,-0.17798414554554948,0.0010610670267944449,0.00022998904088400944,-0.0027413321742993965
239,0.2230836802267695,-9.464697972277191,-0.20155524405474975,0.0004391748114272037,0.0006600147664074025,-0.003178508661511487
240,0.21578714905109825,-9.472355628918166,-0.21612075178122647,0.0004290851262738244,0.0010857900655119556,-0.0019091048770646323
241,0.1821269141537134,-9.469783894062036,-0.22058862144139307,0.0010430329331685,0.001075944605563,8.804713214138846e-06
242,0.13710714493381373,-9.480126384479789,-0.17910148735117354,0.0010421507859945133,0.001075954214112496,6.976031090569684e-06
243,0.114095867284934,-9.488496311825763,-0.17860295508130977,0.00021800972409512082,0.0010849309477215343,-0.0017014600118248012
244,0.13674702530662736,-9.456893025244462,-0.17926665035371608,-0.000626894760567831,0.000429834188344528,-0.00021438830516446253
245,0.1470998170755375,-9.43638319372467,-0.17729933021639824,-0.0006297292223558693,-0.0004385176193257605,0.0010541228255942425
246,0.1316982100978838,-9.451713545604921,-0.17107902579949152,0.000205506691622549,-0.0006437168430191607,0.0010648611170066687
247,0.12031763140106214,-9.501602356367087,-0.16136278901750878,0.0010361794890841626,0.0010616315371592244,0.001059908485504073
248,0.17809062634931339,-9.497156727013346,-0.1984288157066867,0.0010474113004724486,-0.0006543857656125648,-0.0006317369365617232
249,0.20142329939874154,-9.476350595268809,-0.18542215110230523,0.0004184043456607977,-0.0010719300068547564,-0.0010514389486555344
250,0.1977628109644715,-9.460514560524011,-0.17860797713570487,9.78447040446597e-06,-0.0006319928417903601,-0.001489018179290891
251,0.18626227727367567,-9.456395496875503,-0.1942197024588838,0.00022972152170770702,0.00023307351180332957,-0.002119379459290722
252,0.19656733820570554,-9.457526695519716,-0.2115401994438172,0.0010487687573158535,0.0010697434339849298,-0.0020961831907096635
253,0.20929698116040504,-9.47424787532349,-0.17986314443929563,0.00020263754075821255,-0.0006622090472527769,-0.0004018466722998548
254,0.2123440516079791,-9.44719437890384,-0.17947743443445816,-2.1961426860801988e-08,0.0002347885682111261,-8.118823994624031e-07
255,0.2023229968037737,-9.44563538347876,-0.18331253266719405,-5.7681023937992116e-06,0.0010725334628086,0.0008653406979749954
256,0.16292743050021274,-9.465142583915435,-0.18129401464936915,-1.3912414111451215e-05,0.000839872331731656,0.002118261785118214
257,0.06964293596673914,-9.43967590430152,-0.17827623449764396,-2.2143997443064797e-06,-1.0324630338807724e-05,0.002109599795365433
258,0.09755023013665703,-9.49033463023091,-0.20092536912057646,0.0008385428426073505,-6.841510552390502e-06,0.0012700298475265856
259,0.12321060093943878,-9.487188994033492,-0.1968126384294872,0.0010404542747519461,-2.8477815707541926e-06,0.00042339694624038925
260,0.1418651111199401,-9.461668875559878,-0.17887350729245294,0.001048848102534897,3.4464365200541085e-06,-0.0008637534634398913
261,0.1684517840931064,-9.442753331241805,-0.15869118621991862,0.0008339799730451722,-0.0002204884941882808,-0.0021105560494953856
262,0.23080566876050893,-9.457221352848292,-0.14686390718465878,4.402866256992489e-05,-0.0010509317597403587,-0.0021018185048175503
263,0.16960546224753092,-9.48380440013903,-0.13992374604590027,0.0017096253666734553,-0.00019427056379098213,-0.001235127278369861
264,0.18673136246566235,-9.457015241242809,-0.16764479742367058,0.0020941599694983,3.505927918126299e-06,-0.0010350351638065
265,0.1947682924173725,-9.433151845988197,-0.20472377380855894,0.0016563983339186873,1.6963872897824957e-06,-0.0005987158976839605
266,0.19265731176080558,-9.433162492465256,-0.21801841968344557,0.0008135718960836813,-2.9093306012467333e-06,0.00047050939115101374
267,0.23959633140558756,-9.450024376234941,-0.1698336477887429,4.807648588213793e-06,-1.0387749684109087e-05,0.002121425747947166
268,0.09075742916602847,-9.452039359602185,-0.11402121203123472,0.0008400244316460711,-1.1059213482157257e-05,0.0021314567967126974
269,0.1229124687177216,-9.465790457192421,-0.18047826296145864,0.0003919260681926445,-4.268948692457492e-06,0.0008124587549554528
270,0.15829013527683017,-9.474998878649258,-0.23326996383969398,5.76629110998788e-06,0.000456509051924109,-0.0008922800896420924
271,0.14580034455034113,-9.473988946674364,-0.2271571681561486,1.3709926923665102e-05,0.0013249085453366878,-0.0021257474455410423
272,0.12801132994840092,-9.465924219871745,-0.18452943491613819,3.582333591047652e-05,0.002142005282053204,-0.0021283064679265785
273,0.17599229185457574,-9.486569542043686,-0.15530328884021577,0.0008711208385196743,0.0012783649413586743,-0.0021152913333183703
274,0.21217065455131873,-9.467052903864936,-0.18189950130495394,0.0004031303474499159,0.00041316769434866443,-0.001457203916036545
275,0.25946949479268006,-9.432666052780728,-0.21635444282296265,3.944109263689408e-06,0.0004588067230101317,-0.000612923076362561
276,0.27312121575779774,-9.4204597523387,-0.22585777314400024,1.4477976984496155e-06,0.0010779443968992597,-0.00024118054597732936
277,0.16950300620937328,-9.472400297203162,-0.19023982039385762,3.2383526513417254e-05,0.001055249121283578,-0.0010372678037520696
278,0.14845013516890887,-9.50143017538348,-0.1709177307012243,0.0008621456915359492,0.00018826763364664556,-0.00017545147092831606
279,0.10787397454260071,-9.479696283540843,-0.15246059000370646,0.00039442250177577144,2.9317248914129336e-06,-0.0006589775463216785
280,0.08089926069532405,-9.471059873115628,-0.1623872255563128,0.0008916755841036357,4.3758555494737137e-08,-0.00014467950142392727
281,0.09870553817221428,-9.477222726393508,-0.19066136272180317,0.002083454751353474,0.0002403527863822729,0.0006021963063038592
282,0.18176074426328678,-9.460764351355207,-0.20154073597911437,0.002064940412274501,0.0010502251631412224,-0.0010687990095348933
283,0.11174770801243816,-9.452423992582176,-0.17191750766722355,0.0012345604912287482,0.00019289250339380652,-0.0019254591872171515
284,0.1779857999735102,-9.468789859045966,-0.16940486062126603,0.00039608605056496414,-0.0006709727315716482,-0.0014463195264249888
285,0.2515716267141794,-9.458062062094335,-0.18681958630349438,6.927273445333337e-06,-0.0001453096493745712,-0.001059582839155599
286,0.26864519239698414,-9.439764460461525,-0.19749510880665594,5.216915913031678e-06,0.0010807707179372916,-0.0008191554794000887
287,0.211039591350991,-9.474322168488312,-0.16527652698462666,6.560563040648302e-05,0.0010767303980211604,-2.9343001026367788e-06
288,0.19341393187525324,-9.499415609999087,-0.1439817125904991,0.0017368234376331317,0.0010753868399425949,1.713721625344215e-05
289,0.1517960836888672,-9.478638052941747,-0.17513903816191045,0.0007663146016497425,0.00039473462480257696,7.836874770902475e-06
290,0.12237145824368442,-9.43663314520542,-0.18219974797436433,-2.997018994077878e-06,-2.2473526570630916e-06,0.000459577480713473
291,0.07615388385302849,-9.42005829707443,-0.14517072425628674,-6.913196720219093e-06,-5.1839481326892495e-06,0.0010601032354593
292,-0.03856279156466375,-9.480894801488008,-0.08534665448560312,6.613976043176274e-05,-4.262249654254591e-05,0.0010241285492527301
293,0.06914957189817689,-9.483320156256184,-0.1569911778524336,0.0017429734733525727,-0.0009019747060069694,0.00019837735457590636
294,0.11344656064559672,-9.48576566814302,-0.16226288008943868,0.0007636847500906595,-0.00038899906253514786,-0.0006640106639296907
295,0.16032300389800558,-9.477472946179049,-0.15767514627650914,-0.0004428129929710882,1.008246901521163e-05,-0.0019923810546725257
296,0.19785669848102017,-9.452944953575518,-0.1735622605676277,-0.0002802377327927588,1.456563483571671e-05,-0.0029330149418101466
297,0.18010876105763063,-9.416923784765428,-0.22172341028127787,0.0020209006416482917,4.9784976842868215e-05,-0.002056611924633106
298,0.24767378904796206,-9.49610117307806,-0.2329367935513946,0.0003440617312983942,0.0009091332889493629,-0.0012300637308975345
299,0.2350567628625782,-9.502995216324726,-0.22573800304980499,2.390478873410775e-06,0.0010786512783195988,-0.0003857358659004748
300,0.186367601470155,-9.487909208083277,-0.18400636048505473,0.0004561746319325921,0.0010741313270530442,0.00046858461017318615
301,0.13130950819598453,-9.475352341646687,-0.1524720944160128,0.000786383319770897,0.001072212137832266,0.0008103962408626164
302,0.09782063926666532,-9.47360106640962,-0.19860691626519966,-8.71087049600548e-05,0.0010319647302078423,-4.613246012962652e-06
303,0.17664650525537676,-9.430779109035521,-0.1932053794494156,-0.0017582458683572458,0.00017114895067405517,-2.1703475856358975e-05
304,0.194131211173448,-9.432224849969055,-0.1905364893854412,-0.0007494265004211563,-0.0006951584561850511,0.0006751441252278779
305,0.1534373837703596,-9.449988069667627,-0.1806002167946548,0.00046214672413298136,-0.000599938738417919,0.00012693634670749623
306,0.11061927297349589,-9.45727224442109,-0.15327189737780716,0.000796761618408197,0.0002689946227207929,-0.0013108897930648152
307,0.144049233243528,-9.432138540509982,-0.10913042475369657,1.373216559349278e-05,0.001087155985776,-0.0021249253138674
308,0.21259346453806713,-9.431132916315176,-0.203046890056886,1.373216559349278e-05,0.001087155985776,-0.0021249253138674
309,0.21117080695120344,-9.472646042981937,-0.19911887903711534,4.789882066139297e-06,0.001080450501197791,-0.0007536720307058951
310,0.21738929327701872,-9.469628873715404,-0.16888974747808047,0.00046631730815148805,0.0010764082500584631,1.8782928216079795e-06
311,0.22845297953084318,-9.427952516330881,-0.16631454251812475,0.0010430329331685,0.001075944605563,8.804713214138846e-06
312,0.20434591508396044,-9.4016315335176,-0.22579408695062544,0.0009931243213717456,0.001024272230041466,-9.448489699863879e-05
313,0.13286407387680166,-9.455273361608622,-0.20991379354254622,0.00016906390330172848,0.00017108962603813832,-0.0017999396534013289
314,0.096748496463132,-9.470176301007328,-0.18525375458164642,4.8435342050147305e-06,3.631985478478744e-06,-0.000742731111177048
315,0.11016522514886336,-9.451440115306017,-0.18055824396702091,-0.0004731273420403558,0.00048316989336231884,0.00047029081166550217
316,0.1623035472940777,-9.428208135168845,-0.18952265665925414,-0.000786360407548219,0.0010735295012412648,0.00078068542423682
317,0.2260334059279853,-9.436309097888476,-0.18910712584812353,5.4032875876853597e-05,0.0010767397018161362,-3.073290203640907e-06
318,0.24855508192476,-9.433842347118174,-0.1619074926102707,0.0008892496589346918,0.001076068238018061,6.957758561832009e-06
319,0.24950622337495368,-9.41332194872939,-0.1722630418848642,0.001047614817057823,0.0003759157534431223,-0.0006812819199974932
320,0.21866472452704466,-9.43391561275632,-0.1815000700330617,0.00010296784969596905,0.0004938981031952294,-0.0010606392654476308
321,0.1898321540697021,-9.475723043236181,-0.1683268365132608,-0.0005068818527073781,0.0010810588118000423,-0.0008000545451963512
322,0.20701545816759084,-9.487266727343098,-0.12704641803293565,0.0010430385027046193,0.001016400960293236,9.010610962750206e-06
323,0.19183780695237151,-9.475465509786002,-0.14289431669264754,0.0010431191465340227,0.00015424162268084726,1.1991897475431934e-05
324,0.11321763578250546,-9.468929112604842,-0.18957849272044447,0.0010476732632298115,2.565468384998995e-06,-0.0006835978857983563
325,0.07633420319074927,-9.462405821868662,-0.19132172573279246,0.001046885172905849,1.9745088725408406e-06,-0.0005627482794468048
326,0.08217686615290676,-9.464219405624315,-0.16108460817813483,0.0007722008344916794,-1.9597977686325496e-06,0.00028282320701086334
327,0.09187698797415192,-9.48583764597904,-0.14906523843365738,-6.919108957353772e-06,5.802349738414581e-05,0.0010598846685464334
328,0.12516990031721018,-9.513374494649893,-0.185594489060679,-6.9997527867343605e-06,0.0009201828349964602,0.0010569033820337428
329,0.17622189595336302,-9.506030513215135,-0.1875273016026336,2.0458077460565055e-06,0.0017898529835879923,-0.00034554638368359934
330,0.19724904923649544,-9.468054667061294,-0.1724684449358993,0.0004873733649419128,0.0016627902165960522,-0.001060064213797898
331,0.19892716101335864,-9.431108362177461,-0.15689756006366107,0.001048138866206912,0.001079773354130624,-0.0007741639123195297
332,0.21264007717562342,-9.43304579011719,-0.15751864189886158,0.0009143227061418033,0.0011436269796762323,-0.00012471536798275057
333,0.23222414325977647,-9.452224383247183,-0.189123014619411,-0.0007451158583667799,0.002016244053979886,-0.00184616654550634
334,0.1836512607882863,-9.445744842232385,-0.18884126525372605,-0.0003465316051971303,0.001443273039699457,-0.000723055063737715
335,0.16440607552731562,-9.453050560808244,-0.16987710436641731,0.0004841105872024264,0.0005766111682270437,3.819644595487492e-06
336,0.1772938592010566,-9.45613904953223,-0.16654480141555725,0.000765081850188135,-0.00028714829846923434,0.00029093810322747016
337,0.18063731322349538,-9.427798632835783,-0.2053726728771003,6.24174469568828e-05,-0.0010108079054020566,0.0009255185961953236
338,0.062153713414370614,-9.45685948020566,-0.16334727884524616,0.0009086241099148974,-0.00014101865913471943,-0.0007650396366430834
339,0.11656744090161719,-9.532571887288526,-0.1845905783837743,0.0010499796828137222,0.0007224158310239346,-0.0010500581188122903
340,0.1727968497727183,-9.521427386721296,-0.21841291610663555,0.0005622322656086938,0.0010815206461563956,-0.0010571560213464798
341,0.19182280086042217,-9.450794132747006,-0.2239847873273639,0.00028849253799135345,0.0007943112819997078,-0.0013440832495566057
342,0.18392093198434425,-9.406586100002283,-0.1762662067703818,0.000984602649797484,8.343323068953323e-05,-0.0020366755270246465
343,0.18049372041961748,-9.451843683333061,-0.15641555195398854,0.00014376476361650822,0.0009421094485154989,-0.001200086865698485
344,0.2143635239091188,-9.452203568551106,-0.17097744660267214,0.0014011953633101283,0.0010773678061498572,-0.00033647010421614354
345,0.2422431186846603,-9.449618888380705,-0.18117962443610702,0.0020871934872719986,0.0005679947865514947,2.3098183047105537e-05
346,0.2347707872056266,-9.44525612296883,-0.17527523662372763,0.0018017565876751605,-2.858128398902027e-06,0.00030961760255075006
347,0.1782768511626818,-9.430732185915636,-0.16048558111779837,0.0010362204555598,-6.022564523355389e-06,0.0010726313895232
348,0.1395983206464817,-9.428284888153849,-0.2203331597864761,0.0010362204555598,-6.022564523355389e-06,0.0010726313895232
349,0.06961250963491271,-9.472616791028312,-0.2135554829919803,0.0003381483328829212,-1.9653348303689442e-06,0.0003500302606641889
350,0.08190177504585643,-9.485814140222647,-0.21387134256834017,3.231512002444256e-06,0.0005132332313129746,-0.0005046282528105372
351,0.136016555580472,-9.468827734608332,-0.21634161291943035,0.0002975402782452351,0.0007884390389503281,-0.0016427563151498572
352,0.16061341167457793,-9.445102037546238,-0.20101453003288772,0.000984377576932417,1.4389097628943506e-05,-0.003089461942486004
353,0.2472729040969595,-9.406212937488116,-0.22329188000183345,0.00014362553200969753,1.0909875200485255e-05,-0.002250688993705822
354,0.24077823531951165,-9.439317572175032,-0.1852820794862471,0.0007154263960421764,6.291746403836017e-06,-0.0013942771098368265
355,0.2134795590358468,-9.478815606119998,-0.16460140803083478,0.0005516850662116163,4.7459844854319964e-06,-0.0010535604632117077
356,0.19161598259619564,-9.486378584805802,-0.1675852956414565,0.00029543323439045686,3.5070554079541042e-06,-0.000761445119562198
357,0.1795367678809424,-9.442893325281418,-0.17761725553631752,0.0011251922467050506,-1.3151569147769659e-06,9.739085742605685e-05
358,0.1198053663242755,-9.402083083169131,-0.17474291545257148,0.0019556580090090716,-6.13793742177091e-06,0.0009562353225622587
359,0.1020999725736011,-9.397213334064421,-0.193222515846242,0.001374543380802723,-2.7632187657396375e-06,0.000355262826525756
360,0.13006678479190698,-9.431788636868516,-0.20589560659727474,0.0010398073190853673,-3.332909472567609e-06,0.000522604277247611
361,0.1353509072954051,-9.468098550688381,-0.20878051242756124,0.0010381688538989718,-4.561533347637144e-06,0.0007738545042532675
362,0.06887077965901163,-9.466223298097063,-0.20295551500503572,0.001043695804619454,8.844320012490664e-05,-7.525674435495234e-05
363,0.14818624729983065,-9.456359718745352,-0.17623859649437196,0.0010491504226547899,0.0009547532239637586,-0.0009270420284131689
364,0.22331991813910484,-9.464984441599029,-0.20692750464374113,-0.0003767395191192186,0.00034588607756099067,-0.001065887623523085
365,0.20855324523241764,-9.470543446065406,-0.23101115041589682,-0.0010362692599692196,0.0005277881806991093,-0.0010744356184243199
366,0.17850971011310982,-9.46904959457238,-0.23856342365149696,-0.00044320604364217123,0.0010808487026876977,-0.0007668238358899262
367,0.21733215420989685,-9.462572696718832,-0.23049752563070092,0.0008637796198016599,0.001076088714389657,6.651860488679554e-06
368,0.18403924186683668,-9.459631768679662,-0.18008346667831135,-0.0008066539463140821,0.0010774316419858076,-1.3410237042267476e-05
369,0.1730201239992018,-9.471884721669305,-0.200936516555007,0.0003906879920395745,0.00033641580634277566,3.528197148258315e-06
370,0.11972557793375696,-9.445287929005591,-0.17276735051169978,0.0005273740273308141,-5.490919118794176e-06,0.001041481037974596
371,0.07757783974531371,-9.421257065636475,-0.14604215856842107,0.0002892863360790163,-0.00031992264297360106,0.0018196144834559025
372,0.10558647824552517,-9.446600476587145,-0.1844739336240412,0.0011307926453438639,-0.0007933194170811066,0.0008870933763228434
373,0.11880572285232775,-9.454466969339443,-0.17110553633656522,0.0019776221860320457,0.0018015974132126462,-0.0008094208100456721
374,0.13793773958436154,-9.467423654906401,-0.16540353933626256,0.001368170416971742,0.0006669502000655378,-0.00031380430731115606
375,0.1928648370718265,-9.456425557917179,-0.2122282324614962,0.000530574644813338,-4.265499369517956e-07,6.372261960973261e-06
376,0.2106222050642642,-9.450310811038351,-0.23399149276807135,-0.0003005728966370058,-0.0003111951029588296,-0.0006220581221652532
377,0.14663734442705423,-9.475117879015126,-0.16249823475543873,-0.0010298416811827763,-0.001066052978163053,-0.0020316155018747306
378,0.2445576748478243,-9.463772630710922,-0.14170920912340718,-0.0010353821404765562,-0.0010702075617475817,-0.001182014505270306
379,0.2147271460932041,-9.484023793679933,-0.1762133954165442,0.00041186072147359544,-0.0003245439011200312,-0.0010541010894582984
380,0.2109610995655063,-9.476283767622174,-0.22199380404060848,0.0010431561705552357,0.0005319726536809021,-4.0870429608393707e-07
381,0.19569577768381688,-9.463859629482968,-0.223145566447373,0.001038191981789485,0.000754159110437702,0.0007568029618973136
382,0.11910571193743771,-9.474960432480122,-0.15661346976355267,0.0008432587370996506,-0.00010368831155610115,-9.142836729097734e-05
383,0.09119841776752122,-9.462671342736163,-0.17493972955382422,-0.000821558923321929,-0.0009603540353458663,-0.000957313175854754
384,0.11404486778810505,-9.480791056788844,-0.1854416769023874,0.0004189589911116573,-0.00032088580772812676,-0.0010540285034792358
385,0.15719428528248303,-9.46820831621023,-0.16776695088721216,0.002093247033985766,0.000542515120973075,-0.001565549064070476
386,0.20281335295016178,-9.441228482541728,-0.16357247624191554,0.0025203684750960196,0.0007633438931053756,-0.0020937079363576513
387,0.23271701599911965,-9.429638461546435,-0.20470635786602187,0.001055579714858694,0.00011567478688439837,-0.0018979194890940887
388,0.21460175487127806,-9.443909853603333,-0.21161265687595318,0.0010444233498708515,0.0009695288546857742,-0.00020249578145685028
389,0.22048712186274366,-9.452145067505292,-0.19514660565283454,0.0010478783358759771,0.0010795779921617366,-0.0007342129232275375
390,0.20187963665421427,-9.485414666880967,-0.1846140725635957,0.0010499966478032545,0.0005410439362848212,-0.0010494309475227585
391,0.17217298116531,-9.504226866661277,-0.19962261736417658,0.0007326672592505566,3.0319430994853756e-06,-0.0007309425903005592
392,0.15419032765297222,-9.476073509438457,-0.23594147140257857,0.0002148471949564019,-1.7272415551475244e-07,2.580339300465705e-06
393,0.15370072600086834,-9.463775704746684,-0.1929456124758364,0.0018860650021831535,-1.5162822340506794e-06,2.2651855656545598e-05
394,0.10713015788766164,-9.471829499268622,-0.1577641990135739,0.0006124127468937249,-0.000762519527316313,0.0007566598518492154
395,0.10365845516763814,-9.485445004868968,-0.1576168443933474,-3.4232085449385843e-06,8.147428523852486e-06,0.0005247407441170042
396,0.13939739003824608,-9.493547205219045,-0.1803860790998458,0.00032085169925061567,0.0010781113957704287,-0.0003239203502637136
397,0.1870381284304585,-9.484862223296945,-0.19894153973630674,0.0010499568399400788,0.0009666279047204162,-0.0010509025870326825
398,0.2036845846019876,-9.442060030179498,-0.15796643550300063,0.0010500374837694823,0.00010446856710811175,-0.0010479213005200718
399,0.23158238037746046,-9.434472375811552,-0.16500090053065436,0.0003069319938705674,1.2701541239594398e-06,-0.0003062094884318355
400,0.23422421281594763,-9.453695778701755,-0.17486474493839588,3.514512737821187e-06,2.6354018960946516e-06,-0.0005389324903095027
401,0.23850306698294899,-9.467440869978471,-0.19076710842394382,6.913196720219093e-06,5.1839481326892495e-06,-0.0010601032354593
402,0.251585546771118,-9.452119820245443,-0.2132976309687884,0.00012062635356338436,4.523041642600294e-06,-0.0009423944016128713
403,0.14974840313352195,-9.436410800847336,-0.1970498097078848,0.0009503078747565406,-2.9910838195416974e-07,-8.355935530180362e-05
404,0.1466164037183766,-9.463921723436592,-0.1868370242507901,0.0010382176822438308,-4.524918794717884e-06,0.0007663669281778361
405,0.13025741406189245,-9.458525608291637,-0.16544902078344778,0.0005094416814374613,-2.8729650844506734e-07,-1.8859340410186127e-05
406,0.1055265545975545,-9.442804068229034,-0.15698332449152577,4.753096394964823e-06,3.5641695410034585e-06,-0.0007288629371727839
407,0.09761318448346051,-9.447554697275711,-0.17755183214289053,0.00011880327150935621,4.916348515662248e-07,-0.00011852361343682288
408,0.13384370673914334,-9.469187591250554,-0.18788422826471857,0.0009595553164319967,3.970857280024265e-06,-0.0009572965622169551
409,0.13424801761279506,-9.475467838171145,-0.15589957341018598,0.0003047258291248291,4.9445247813899645e-06,-0.0010565264717983965
410,0.15553318456154186,-9.459947866311307,-0.1347400418576462,1.0478098529397085e-05,7.857134912237902e-06,-0.0016067626312423339
411,0.19232965941130148,-9.443075497624877,-0.1567206991199639,-0.00031787188328087857,0.0003491146310597542,-0.001791173395036946
412,0.2280058446770524,-9.438805237921024,-0.2178431171298291,-0.0009155447122203987,0.0009566118462119554,-0.0009509127068966282
413,0.24318349589227098,-9.421091350720097,-0.19957159343000788,-8.578254719790374e-05,8.963035857499059e-05,-8.909637407289148e-05
414,0.26406796003515765,-9.435573238252605,-0.21671060120833607,4.890708220260613e-06,0.0007767490825949919,-0.0007637259407761763
415,0.2342393668318396,-9.470032599918039,-0.1908522047201203,0.0005441808543650196,0.0010788439585106345,-0.0005075761356511619
416,0.16358151658695888,-9.484706144180507,-0.1658546948699157,0.0010430329331685,0.001075944605563,8.804713214138846e-06
417,0.08677022419950967,-9.46371586292603,-0.18038442413716252,0.0010422158036683658,0.0009461669617105761,0.0001364064772378348
418,0.08530141924319819,-9.48536073995412,-0.19271042591492415,0.0010367611856330295,7.985693787173263e-05,0.0009881917612960785
419,0.10412165961509945,-9.466672217909732,-0.16322430514108907,0.0010362204555598,-6.022564523355389e-06,0.0010726313895232
420,0.1551780088278378,-9.422049171492821,-0.1572034954228616,0.0004989348975863304,-1.7290461507129728e-07,-4.062949846947786e-05
421,0.18200307782946318,-9.41829712365342,-0.15792882768865177,0.00034126842283648846,3.2406590263971945e-06,-0.00071399936455115
422,0.17529695845677806,-9.480037628877326,-0.16230144075711478,0.00104313365228,-8.386163906661392e-07,1.2528154063927203e-05
423,0.3118958193937523,-9.475566944048616,-0.2537227694445004,0.00104313365228,-8.386163906661392e-07,1.2528154063927203e-05
424,0.2322390440028446,-9.476507922743643,-0.21812871751769794,0.001048216704191531,-0.0007774368630609754,-0.0007530403904036674
425,0.22629225800400282,-9.486378023498942,-0.19512071076172524,-4.9641611985894044e-05,-0.0005085490645175819,-0.0005020045152936812
426,0.18830009414477378,-9.494445511412685,-0.1786815686012726,-0.0007052526424371566,-1.125164744976193e-06,0.0003372253903065658
427,0.06503646114564761,-9.489918708286655,-0.16581698198938888,0.0001252923677399324,0.00013119320678054027,0.0010612192424839715
428,0.12721587096283,-9.466286860223581,-0.22615142480615935,0.0009604285069684052,0.0009926810805948594,0.001068269004736732
429,0.14576299668541526,-9.472192936496668,-0.1726998619770828,0.0010361930712530897,0.00028674175370186006,0.001071619031046936
430,0.1625482215879146,-9.470970940024689,-0.18890572141158277,0.0004918771154962086,0.0005692983760343204,-5.711186521214725e-05
431,0.18408841932133713,-9.459711069457258,-0.21624601490651912,0.0003527436195554414,0.0014385046973342203,-0.0014105303977980416
432,0.20917393643069498,-9.448378949101105,-0.19977683355602124,0.0011908859524220254,0.0018822262559476822,-0.0018374401523614625
433,0.2272891975585375,-9.472477193229642,-0.18242413923968048,0.0020159726188129904,0.00014812067734718101,-0.0001230293182654075
434,0.18591249712200208,-9.47996563675917,-0.19042061995031104,0.001333508007038818,0.0007942065486758165,-0.0015385190634740005
435,0.20659970363580407,-9.480630600218465,-0.19224932599616296,0.0005017687385963453,0.000513704857335816,-0.002117082985565658
436,0.2404697011032345,-9.477834118202562,-0.18606741097742346,0.0003610666969837233,1.0093608830297832e-05,-0.0021170315553532093
437,0.23009435506469408,-9.472671264333199,-0.17470814754891267,0.001056028918249738,0.00015265219999470358,-0.0019674547296637105
438,0.14588287090283586,-9.461383908182343,-0.16339003486315704,0.0010504078151266348,0.0010106569540225942,-0.0011208350195720171
439,0.14615643877586185,-9.438781821492539,-0.16612371552347532,0.00028332927299628494,0.0010817448673005499,-0.0010605056780781188
440,0.12942694196932275,-9.440512525620985,-0.1690911942987532,0.0011209803660186485,0.0016555560590722847,-0.0004846075562032838
441,0.1227482733643801,-9.450441660146533,-0.1804792543477342,0.0017359666491599105,0.0017907430266147014,1.4654080431315775e-05
442,0.14707374543867152,-9.452181529597128,-0.19295075430673816,0.000758247257286191,0.0010768843041148754,-0.0001398173482690155
443,0.1730226330001728,-9.443318750094114,-0.15092699696988163,-0.0009066510469647117,0.0010823779179375405,-0.001008683443345492
444,0.21973910227220858,-9.47073780847139,-0.16719394830862389,-0.001031137869555316,0.00029162648703904783,-0.0018570358067618283
445,0.2471159760489856,-9.442614764588985,-0.1768400297577064,-0.0004745074019761044,5.168443534691394e-06,-0.000983649020348291
446,0.24908930329485032,-9.433625182055815,-0.17032144781848235,0.0003566464921425688,0.00036723856134563196,-0.0003571058737967129
447,0.23683574013668654,-9.48248956603063,-0.16352129933640613,0.0011955288196661288,0.0010802831084163328,-0.0009007409760940219
448,0.25446139961242514,-9.499701108006358,-0.22281838957731964,0.0020259945819701896,0.0010754603279093276,-4.18965109578304e-05
449,0.1582460691808679,-9.465910891589523,-0.25842965538532436,0.000534010361000754,-0.0005248434325373707,0.0007945767887735256
450,0.15215089322350228,-9.450362119697555,-0.2140370250149125,-6.867107935494545e-06,-0.0004979169497110935,0.0010618070716156554
451,0.1471238011762124,-9.45703754011387,-0.15956391133477155,0.00035330578133374113,0.0003657331986341579,0.0006994202741792508
452,0.09346059452647909,-9.472919854876949,-0.1492560611454673,0.0008920886839099968,0.0009205174524510367,0.00015994338754182907
453,0.09884621269962085,-9.460128264283725,-0.1754801825576437,5.141728281678458e-05,5.4878892410282816e-05,0.001001697622834581
454,0.11334443794383213,-9.469307522656477,-0.1910812444726831,0.0007753526060583309,0.0016034830452537842,0.0002739775794994836
455,0.14053709235473852,-9.469390544455141,-0.20994745515717222,0.001046760403740409,0.0015683024533174339,-0.0005714980368356687
456,0.18181519600508889,-9.461052281697809,-0.19989952875621345,0.0006885499906775729,0.00070832898611704,-0.0010543492306755683
457,0.21845439992010618,-9.446623279983127,-0.16446996872001343,6.898374256636674e-06,0.00016365020007233375,-0.0010606512006427807
458,0.18516148757704595,-9.424989452263878,-0.19566932196512224,6.81773042725608e-06,0.001025809537684717,-0.0010636324871554715
459,0.1436297781966273,-9.477398408515535,-0.21981676532113567,0.0007875510973786461,0.0018880979570948537,-0.0010572387245413415
460,0.15156280769432104,-9.475227035043273,-0.20454792718605957,0.001049955999602526,0.0009756119136301116,-0.0010509336531053506
461,0.16636143050550498,-9.468923210463945,-0.1856848553651343,0.0010452091546059616,7.177253196199679e-07,-0.00030573947522633785
462,0.15063470439837717,-9.484954815770003,-0.18619342867634342,0.001193416241739704,0.00015598109956310187,0.0010739588766205746
463,0.09237210779802238,-9.468248109004564,-0.19118984512870962,0.0020293366220790515,0.0010174683428950202,0.001081018057698513
464,0.15733364378008674,-9.458431743005745,-0.19658740303917524,0.0005211660687243522,0.0010789789384371604,-0.0005316482160718315
465,0.15188887421261643,-9.453840167290952,-0.18292605041726917,3.047831543058635e-06,0.00048406084525089924,-0.000475944977233936
466,0.17649330208324016,-9.44746579593826,-0.17725699085216368,2.4779527877311074e-06,-0.0003785862949620493,-0.0003732093911261699
467,0.25669480004060147,-9.438112701172724,-0.18505486741082597,8.048334354297092e-06,-0.0007392126395821391,-0.0012209052761795846
468,0.22340188769754113,-9.437139446784085,-0.16133734546385997,1.3427505989271714e-05,0.0009892606192270584,-0.0020764688458092704
469,0.27601719199078195,-9.45238090449455,-0.19166364573987857,-0.0007741805283160316,0.0010877894199463089,-0.0021343882351302947
470,0.22975267543234035,-9.49083296222376,-0.16687193926545477,-0.000457040923972178,0.0004830555081590325,-0.0009490016485942472
471,0.19092679594067044,-9.477693074144224,-0.17330592036555803,0.00037458077339698085,-0.0003825315855923558,-0.0003723350571866375
472,0.19649997470971026,-9.415427800402236,-0.23090789747297596,0.0007207037372644352,-0.0007340744505738837,-0.000882134139680875
473,0.1127780921999558,-9.46464625338126,-0.20811787084484795,-0.000955426378374853,0.000987436466020501,-5.935481269157872e-05
474,0.09400959124898253,-9.501258061213054,-0.24107726665517104,0.0005345971827577004,-0.0005615701915837796,0.0008127471290432046
475,0.11543369332176673,-9.487669773728452,-0.22674860423436544,0.00046051074257680915,-0.001076536689626413,-0.00011672997050405346
476,0.1381107339554753,-9.484151604773583,-0.1919849207766955,6.97764728194838e-06,-0.0006838539365518994,-0.0010577205907871074
477,0.14212194309691123,-9.505642846550339,-0.1632881218331092,8.025720033456172e-06,6.018187831866483e-06,-0.0012307029755820034
478,0.14261154474901505,-9.473667994105078,-0.15246285419448413,1.3566179327191909e-05,1.0172771416331867e-05,-0.0020803039721862975
479,0.2102099442487682,-9.431370562340195,-0.1585693407036654,1.3909646519905268e-05,-0.0008102841423765256,-0.00211836409900152
480,0.1996379101001156,-9.444593633833165,-0.18424212020225283,0.0006009713543100118,-0.000460849424706761,-0.0021125229807390086
481,0.19927138865894706,-9.46607823609084,-0.1974021328264726,0.000675273672646587,7.952856303669766e-06,-0.0017275198708980354
482,0.24400421167138017,-9.467300779092113,-0.18600917017825835,6.929732688887616e-06,-0.00017160130504210912,-0.0010594919244545473
483,0.25526504966976815,-9.461886097199573,-0.17464121650034428,7.010376518268209e-06,-0.001033760642654475,-0.0010565106379418565
484,0.1780523584224313,-9.437686377637903,-0.14963194461649965,0.0008002050946112852,-0.0002518890818606219,-0.00023808792544631471
485,0.1504446993913507,-9.436958353909553,-0.1851235611013657,0.0010392192580129331,-3.773874516921767e-06,0.0006127804245158473
486,0.13877718652824525,-9.462763807819632,-0.22528422857763214,0.0010387569149714062,-4.120568303282986e-06,0.0006836783569850313
487,0.13279928107221126,-9.496182030464535,-0.2290494758768968,0.0012180909192116387,0.00017946976839667978,1.4005633327762952e-05
488,0.17637382810945135,-9.4848540564319,-0.1875167990339973,0.002054011299550986,0.0010409570117285267,2.10648144056867e-05
489,0.21571662460781524,-9.46455145829705,-0.1782898847123893,0.001284360427442855,0.0002477661484178145,1.4565266122406867e-05
490,0.1956713360551145,-9.473294101323095,-0.1893677407725049,-0.00013343499874669145,8.978237042348203e-06,-0.0018138894515190931
491,0.20187552976049994,-9.479619859602462,-0.20745743449583814,-0.00025239519242247464,1.3854608133113724e-05,-0.002791994742206652
492,0.24716051149435958,-9.466543918999113,-0.21579041431215762,0.0010569665369849,9.534147431644466e-06,-0.0021086737189537
493,0.22121162393285548,-9.443432001680936,-0.19111735749178094,0.0010569665369849,9.534147431644464e-06,-0.0021086737189537
494,0.16739850563146622,-9.474423066401402,-0.14585845539597406,-0.0005702972581329843,-0.000832833908033884,0.0003319155387446667
495,0.1370907588709731,-9.451766879189677,-0.12717259442514045,-0.0010459846907358386,-0.00107815801836589,0.0004438321600117607
496,0.11081462528967267,-9.439154079291313,-0.15737089900525414,-0.0006506992212658183,-0.0002695196517479005,-0.0004030729346787221
497,0.08536908150111505,-9.46176622514865,-0.21044755762776607,0.00018632751988743228,0.000892236249605296,-0.0006912568417738185
498,0.08634828480532261,-9.478983058342694,-0.18965231785307474,0.0010105544230451801,2.1104075741904278e-05,0.0010193634885954097
499,0.1489937278424014,-9.47044387376546,-0.17510108543322886,0.0010415833520110195,-2.0011286855942414e-06,0.00025025874348538204
500,0.15687260241967022,-9.42390987155073,-0.17222627177021127,0.001047118613875759,2.149557540911839e-06,-0.0005985452540601822
501,0.16850081250529292,-9.429402266310982,-0.18929822365242224,0.0006592815311705023,6.618328916069481e-06,-0.0014524491025094356
502,0.2103336134848075,-9.482810485510385,-0.21776512832011166,0.00019930871473800783,-0.0001812167872984786,-0.002118312514558332
503,0.25635616878256945,-9.442458547012013,-0.22522877768576516,0.0010346061416253109,-0.0010440475887089783,-0.0021053001792801884
504,0.17374092761108165,-9.47969539801278,-0.20326902911984615,0.0002387609917957934,0.0006073132815114338,-0.0012937585723287557
505,0.1545821243250468,-9.475594443003006,-0.2030973690750158,6.754022735094972e-06,0.001706905439210127,-0.0010659876690069427
506,0.1672291911509686,-9.470359115783346,-0.19153325283231726,6.78834942271775e-06,0.0013399204573386763,-0.0010647186606820471
507,0.1659837053282154,-9.476488245543784,-0.17199994783154582,5.660582392480519e-06,4.244659411703109e-06,-0.0008680212572718988
508,0.09352266081685329,-9.463229480764756,-0.20072979816924352,1.2532052772603794e-07,9.397318519708445e-08,-1.921725972635556e-05
509,-0.013870115656097557,-9.487001970529139,-0.1622422129189457,-1.0903780452226417e-05,0.0008345224724781581,0.0016570386413203306
510,0.06480550360346236,-9.482190299803598,-0.16610702522881968,0.0012074539951470633,0.0010684580709339766,0.0015132309145740115
511,0.14859680887113233,-9.468073347196844,-0.18328505750780738,0.0020855410001986243,0.0010739016320643565,0.00026747134227860794
512,0.16264428337553852,-9.455770921771213,-0.19030422491623372,0.0019013405027035173,0.0008816760443835596,-0.001040386076086603
513,0.1778219345907572,-9.443468137109258,-0.17449599697397522,0.00106542012236408,2.01888010516938e-05,-0.001047445257164542
514,0.15887716549613817,-9.461597110769084,-0.1824340517384785,0.0002302695602870915,-0.0008412990611675256,-0.0010544951926373576
515,0.2110365402856516,-9.464415187474165,-0.18719032606859082,0.0006188944106047839,-0.0004404116126601781,-0.0010512146343288817
516,0.24721582937630648,-9.472398228325984,-0.18727455916271551,0.0010500468490002,4.34533174202311e-06,-0.0010475750813954
517,0.2710506952815577,-9.482711836738899,-0.18970720411917627,0.0008513227539284704,0.00020498571203757815,-0.0006520381901247072
518,0.40128473474118187,-9.462501785818791,-0.21144103496856398,4.954803311643929e-06,0.0010595151409950208,0.001032557469688419
519,0.6396386601155015,-9.458746078133315,-0.18143277038333497,0.0008163122616988172,0.0019217027049192542,0.0010633271045148824
520,0.9416006907879975,-9.484207073401329,-0.1768426712846656,0.00040426948475971074,0.0015008719834666766,0.00356258164801888
521,1.3565056468499614,-9.464774179536898,-0.1565514757150168,0.00036209182087620033,0.0010424271828961284,0.006959881462419623
522,1.8644468602545887,-9.429243959733894,-0.1428949231239071,0.000759988191172547,0.0008074642621139724,0.012797441870322664
523,2.3653093503567737,-9.526976520426306,-0.23399475863026883,-0.00016373812503685852,-0.00012045407811417678,0.026375241064092548
524,2.88992501455822,-9.531674503680453,-0.1729878446283829,0.0005442840342939073,0.0014955542793473496,0.043325677247809245
525,3.585693707445519,-9.445333605153142,-0.26298697544198224,0.0012363612473267932,0.0031117606319214985,0.06534386745145643
526,4.512498723884502,-9.370571166718324,-0.30242787427460127,0.0014811801868067041,0.004276714503777381,0.09287802303318221
527,5.497895929879436,-9.388003852332425,-0.2572358195963164,0.0016691821994696092,0.0049750293787731645,0.12635912941270486
528,6.115773214834466,-9.554075878228646,-0.2819189417878049,0.0030793153692429106,0.0056415263071323135,0.16627955929774174
529,7.211726641376941,-9.344334167860556,-0.3650341733236676,0.0043968747030206385,0.003664345015603027,0.2205611136873717
530,8.499806461014135,-9.140100228065265,-0.43069751825122,0.003803824725172885,0.0003573747579218526,0.28123509307559197
531,9.340165887213058,-9.027782048572519,-0.27457820336832545,0.0033608660049153547,-0.0012792698159030684,0.34828193986174105
532,9.739391567338364,-9.085284284638927,-0.07663718050840365,0.00452998253527237,-0.0012156202438129112,0.42403112248552655
533,10.377342520029643,-9.383675982946826,-0.41654698418686725,0.008125583311691519,-0.0025170687107040207,0.5132310041506247
534,8.439663750232572,-9.36849700699658,-0.24011114491078123,0.00827352868915565,-0.0030377933048158215,0.6193442497477295
535,4.28184119875954,-9.196117783834149,-0.12308204312033222,0.009076898031002749,-0.006765315021947722,0.7204080086879003
536,0.33459408091750775,-9.10139293651787,-0.13172923568006878,0.009283468400114962,-0.01327644505815511,0.81679772516703
537,-2.7908201046099044,-9.052721630350064,-0.26179259445599523,0.008602638901964546,-0.020956956616210946,0.8890481688815128
538,-6.28264277792077,-8.756639677694611,-0.43958214773421517,0.007700056315457821,-0.02702074765591551,0.8982574050365235
539,-6.863799938968006,-8.777484976794092,-0.5500525804135173,0.004618629816335484,-0.02682292825194163,0.8583131225502296
540,-7.695958815072169,-8.946385920049723,-0.3703713761837325,0.006678949633579928,-0.01289727685139393,0.8023802921568607
541,-6.74981205871635,-8.875362620417935,-0.049983712539043906,0.0096532272140107,-0.004447936688344971,0.7292488041114069
542,-4.022757790240091,-8.79132936286168,0.22021398664777264,0.01142334604614694,-0.004895672927949062,0.6484956362350636
543,-1.4181262210659216,-9.487980859719348,0.21059808776326105,0.011864419538306487,-0.0028168413789043624,0.5799179929050987
544,1.3848432372284891,-9.832416637598193,-0.2128741644264473,0.011294554399035742,0.0016947160194076666,0.5391408967535455
545,1.7182140248196187,-9.618947425989735,-0.27318119229899346,0.0074567056538036,0.004825954051943108,0.5137781858168097
546,1.8806826021943746,-9.300725304981462,-0.2343917107196637,0.0032698278035405153,0.005202229587277334,0.5175617707568083
547,2.6746918640332553,-9.044587104926062,-0.2543344871278034,0.0008196197380172365,0.003557022036184681,0.5475816037444226
548,3.558322030224588,-8.770449010660428,-0.39569989351801405,0.0014427875120059817,0.002447062494875458,0.585945644606609
549,3.0692099797728947,-9.022958624785574,-0.5690386728197072,0.00528880569701765,-0.0038421340582521515,0.6369576851300092
550,0.8768151058423002,-9.202500293450786,-0.48272774192566104,0.00985916631974457,-0.004804907053967751,0.674365508934225
551,-1.1544934825153013,-9.12569028984213,-0.26279104138244175,0.013368764095062099,-0.005435787364098716,0.707523189574957
552,-2.323947449800584,-8.912054445151242,-0.0414702054764235,0.014593851838160686,-0.007750460567579529,0.7345946861022579
553,-2.910005102049667,-8.937001276553566,0.04407967667809449,0.012831482759986745,-0.011207209045235794,0.7446151376453968
554,-2.8786705963150214,-9.18934546229431,0.08159119569928751,0.009489912030473457,-0.012066681897173623,0.7445779853180223
555,-3.426894938448545,-9.158643126832898,-0.11246159977767525,0.006899579069169595,-0.012182921918578175,0.7276224440672768
556,-3.8470738818986785,-8.957655325633457,-0.29354862234844953,0.004585954250056,-0.009357806112815002,0.6980362716509722
557,-3.559389769486801,-8.710549140462353,-0.40598097313922704,0.002507532526247934,-0.005651763832971238,0.6667380375681646
558,-2.118689163644545,-8.563049111457099,-0.5337945912749769,0.0010635822642664145,-0.006378021256133981,0.649691524074546
559,-0.7360540981033532,-9.000417016332719,-0.20270126824951729,0.005368415505860345,-0.004560762454222692,0.6302084588457669
560,-0.3366568520436223,-9.204871879610105,0.0860471398330914,0.009007358495332308,-0.0020943338874836437,0.6139877591319711
561,-0.23301196210085345,-9.128793489175957,0.1182282017766572,0.01062348399060266,-0.0021953038474585144,0.6111338524716247
562,-0.09253901996980932,-8.932647626720273,-0.026988380250258074,0.010339963321164582,-0.0034110469596708762,0.6196253853807233
563,0.12195996720897467,-8.93139978765051,-0.04956099523034628,0.009427721163303022,-0.0009897182578493993,0.6281781013765283
564,-0.9894357830666998,-8.90272986793977,-0.06935903762780869,0.007680015148574795,-0.003633788078977528,0.6400534298997388
565,-1.5338239710950798,-8.876930272117198,-0.08623083665144901,0.00654969844452789,-0.006300906769297848,0.6565435248107327
566,-1.9477637118686792,-8.869576624522855,-0.10223921830839408,0.006483142113836068,-0.007155845891765506,0.6734826358570192
567,-2.1498500004031422,-8.837218370350495,-0.20882555763049074,0.00700756123209139,-0.00611418842886566,0.6856150015776006
568,-1.766055235258598,-8.714457464057604,-0.5414892446134931,0.00702205901966968,-0.0044692341507725905,0.686994239802696
569,-2.961172868044026,-9.143298279811875,-0.5304086827190861,0.007918259995078116,-0.005287205250901731,0.6776680199671262
570,-3.2965373038963675,-9.030875083189141,-0.09209085529113126,0.009439971729024159,-0.004107910738176226,0.6723133251749414
571,-3.1566493627324386,-8.782939442753126,0.26713889263025026,0.010255230976207957,-0.0037329541733966036,0.6676260172232944
572,-2.7777086146283274,-8.678880300000245,0.25357425085274743,0.01006875158876641,-0.004558552195433694,0.6601415699816174
573,-2.346524239939362,-8.89830516369015,-0.23835955611929924,0.009267690684430889,-0.005241345321800071,0.6464386955252506
574,-2.9222957828135248,-9.006218309961067,-0.10047540149574172,0.0068725295524868025,-0.0025690101669643027,0.6294195907738782
575,-2.4797691404937128,-8.685902906725417,-0.23875057234245753,0.005027469544013251,-0.003354145659382373,0.6283880693025115
576,-1.8451512774465906,-8.465464441095989,-0.391071373406325,0.004686199033332081,-0.0032418394917459723,0.6299637477235434
577,-1.430846787349728,-8.603677475093257,-0.3501587578862718,0.005752357234788691,-0.0025099064499098083,0.6311872246544932
578,-1.4207833005871373,-9.145260317009193,0.017459326546107806,0.007364020931991871,-0.004257249167731115,0.6356454528484812
579,-2.6447874308465735,-9.198284647331313,-0.16294474181539756,0.008138495605631126,-0.006028718086603378,0.645000684239779
580,-2.8040804014079392,-8.77849794353921,0.14718853109799448,0.008921379193680511,-0.004395822319872282,0.6530059659520238
581,-2.4793982550448876,-8.472387664226742,0.19143346877942444,0.009304192075177995,-0.002740214530668462,0.6533246098398404
582,-2.1721895406997938,-8.498841813108356,-0.06569993800806681,0.00932205975424092,-0.0026148328079622376,0.6505826996437043
583,-2.349987049577779,-8.830774076462388,-0.22301510342168165,0.009255577755580731,-0.00429247472778352,0.6555420720999722
584,-3.203362729194658,-9.067166167277298,-0.2783624664726747,0.008409285251364394,-0.0043001085337964874,0.6572304460453566
585,-3.653766928180762,-8.816718896534574,-0.15260267663359955,0.006901430941023804,-0.004990821458129847,0.6589126062751829
586,-3.2332644925698286,-8.653147887929137,-0.17553115007743375,0.006629134059114581,-0.0044198340531500305,0.6532258200364631
587,-2.7177475224683905,-8.728831715295685,-0.22752054512149592,0.007281335294092385,-0.00366342981449903,0.6435931847729681
588,-3.4912875078429417,-8.916585905013443,0.034699883419509824,0.007269033069464137,-0.005252084129282068,0.6396992430526807
589,-3.7179730727670113,-8.495083879329886,0.05022730724746624,0.006411589321966877,-0.004405050430851457,0.6430822409073136
590,-2.7043037171940214,-8.391697583220143,0.15973224328651991,0.006232614130190513,-0.004235915846489432,0.6444476035078803
591,-2.0809393829210263,-8.51878578845777,0.12727220204396306,0.007156758967951077,-0.004229437217134918,0.6429833740511478
592,-2.2851880285792534,-8.783922904113037,-0.08113868411533262,0.008089735547532258,-0.004222245734353456,0.6413721682751952
593,-3.060057446728002,-9.050172812361987,-0.3504667135814133,0.0073215848523293945,-0.004190714021995745,0.6437838463692908
594,-3.8316696504437164,-8.673116653403248,-0.04238680122866652,0.008156720991557993,-0.003329226148181273,0.6437908961315436
595,-3.492726896193733,-8.216541305445734,0.008707040039737391,0.009009717981539496,-0.0038350427795079325,0.6410836526656164
596,-3.0531499235085695,-8.130504440062733,-0.19702297610594416,0.008908926928511078,-0.005184136193486373,0.6433122452955187
597,-3.148117683038681,-8.451253819564577,-0.37845331519392944,0.008047896231492914,-0.00562222571546851,0.6472681109013956
598,-4.15356829519836,-8.964722359833424,-0.15669845350011943,0.007276121554368557,-0.0031596154378322754,0.6443836474600813
599,-5.31049699911969,-9.23761290010549,-0.17305270229077407,0.007331489765303073,-0.0031180968834933266,0.6358932164874492
600,-8.328305861868966,-9.124645708836116,-0.28872864184996555,0.006679253158280947,-0.006573244448807825,0.6328737096724231
601,-12.239742181571224,-8.558926881175871,-0.27503719765116164,0.005464550371911808,-0.010340762511966894,0.6198443222827896
602,-16.107498885724826,-8.10658789519667,-0.15573914315357648,0.005841895391952975,-0.012541667705339748,0.5810962689158157
603,-18.910772553797408,-8.546580564806126,-0.06898138005523548,0.010303299166308044,-0.011848866586718238,0.5002921359620685
604,-18.988619216481915,-8.807322067728828,0.10990793664957092,0.01129941183985686,-0.005927790427806491,0.34745126993063435
605,-17.601040899305666,-8.377392049609416,0.22786464907396609,0.00966780544323205,-0.000644404888411548,0.18290179638800708
606,-15.297332815853903,-7.960213590950394,0.3474918400764777,0.004949439762826402,0.002945184696292613,0.03506914842981398
607,-12.508736545418184,-8.110733171250185,0.3297527768683781,-0.0009014930284800366,0.006146074074561367,-0.10116674327109074
608,-9.754204976107552,-9.14556686456045,-0.013970915665081239,-0.0048527265929258585,0.010710612389398907,-0.2401185588951978
609,-8.744156767817342,-9.178204345754363,-0.27060111114786584,-0.006987178911951293,0.00840431489757496,-0.2970239220005702
610,-8.387236051530516,-8.760099589442918,-0.2965898420391326,-0.00776345491752425,0.005394972075071712,-0.3539098984068398
611,-8.88459710965571,-8.589806577004996,-0.37851865424962683,-0.007346925629439156,0.002663400668977206,-0.40119739227113216
612,-9.843611613210893,-8.66283378797051,-0.41011085429957594,-0.00518595865908052,0.0019103611157792438,-0.44268277046469534
613,-10.593288580850077,-8.651159429827315,-0.1460890579148404,-0.0011009295155336742,0.004488174269610338,-0.48832173317331734
614,-10.898310410110756,-8.29313977922441,0.17754617951766374,-0.002412186225707297,0.003896409810600546,-0.5435246294282935
615,-9.17366388641073,-7.865694781054864,0.28805426455874594,-0.0036729373087038514,0.002637693177379178,-0.6063614277128356
616,-7.384841413992897,-8.095729725230363,0.14192264227029505,-0.00532267677971703,0.005210411821904734,-0.6825082362106528
617,-4.946938616559742,-8.551683160259833,-0.07842015334555497,-0.007341417181694409,0.010476790662011657,-0.7574109361593369
618,-0.6872193285021395,-8.39675903347163,-0.13015900753564053,-0.009275567370418864,0.014920600898111971,-0.8089558306549047
619,1.141442842105633,-8.163992286814057,-0.32408761233868183,-0.008273708842363739,0.017630958582327567,-0.8344252299656902
620,2.507333907546435,-8.68177910590106,-0.3893702945209867,-0.009086706567858779,0.01150665836400349,-0.792193370098881
621,2.2959669299727103,-9.071221404116525,-0.3964325719653877,-0.0102392501698829,0.01092034061855086,-0.7435881025374682
622,0.6027592990443947,-9.014235874433405,-0.3245397446908185,-0.010008746489769139,0.012245960859643645,-0.6994858678604327
623,-1.7115531159265809,-8.49361979296578,-0.15819259495449287,-0.007170202226417734,0.005775837078413466,-0.6510526076851483
624,-1.8848721007713338,-8.161138036945504,-0.27599508026510045,-0.006716205400290075,-0.0031353238814332334,-0.592430933559562
625,-3.9099474484384644,-8.774947611474227,-0.17692936530413356,-0.0032502387516471515,-0.00117313343531605,-0.5723909932713098
626,-5.251027464172231,-8.716380943575817,-0.05319173826951242,-0.001520212364309414,0.0011194456913169314,-0.5668625569921267
627,-5.3209853002900855,-8.179876129657426,-0.07987410083863773,-0.0020435420322451534,0.0017185733085103131,-0.5707604615863537
628,-4.447277563381821,-8.023431198905824,-0.372027393396965,-0.0035501928531583853,0.0019988366969493293,-0.5858466182302469
629,-4.13295330273113,-8.469501288512925,-0.537787350425622,-0.004175259718275947,0.004744560763055889,-0.6181281178352046
630,-4.693569495356002,-8.819444734521815,-0.03399261311849611,-0.004097488524610729,0.0067800047494679105,-0.6518091845624464
631,-4.400864645450419,-8.718942191729449,0.1005455796487312,-0.0058480072466219335,0.0061431409756970735,-0.6813473347737369
632,-3.142469832710705,-8.465483315936057,-0.09933125393230531,-0.008482635238760645,0.004531976092469258,-0.7045884908851714
633,-1.418401945214278,-8.539211454095744,-0.2537429778051925,-0.009912204039482422,0.0046096463936159075,-0.7202384640200581
634,0.5062221492056591,-8.742253918714274,-0.5650851680787904,-0.009906663580188643,0.004613800977200357,-0.7210880650166624
635,-0.008802826707535738,-8.707111292025687,-0.5868995057753305,-0.011300262687363003,0.007494727789989294,-0.7212552379852447
636,-0.63888641206266,-8.858629335385015,-0.4998506115959898,-0.012083127401761273,0.007846244604094539,-0.7073406602632424
637,-1.0078760957770525,-8.960500916365518,-0.30528530315248614,-0.010262900679306504,0.006589014558388595,-0.6843982956758254
638,-1.3420186363602171,-8.713220847570412,0.003770556190185024,-0.0047719474295345185,0.0064060542420345,-0.6633292579205918
639,-1.3278201884492074,-9.237601362339932,0.048150309257699066,-0.0015520223579613987,0.0054498699376166635,-0.6446076730798382
640,-2.2435190531377396,-9.330206116927638,-0.0267873648900219,-0.0010517699950676309,0.003834678927445445,-0.6387378689029736
641,-3.1104524075192694,-9.207488451924794,0.03305429154409787,-0.0025690084618297184,0.004117442510512962,-0.6328558913683546
642,-3.1571866348714277,-8.935328256126647,0.09796011727977184,-0.005102722600477486,0.0052358797632415304,-0.6287230517539935
643,-2.03069480507147,-8.632310899058936,-0.05072748724931982,-0.007510438202542008,0.005095232099930926,-0.632080839207001
644,-1.9523585407348492,-9.118793309302845,-0.3139249753776654,-0.009108731211319623,0.0034254213233942503,-0.6431325758965055
645,-2.2566995765287023,-9.147080902766564,-0.12612627802720283,-0.00999433812859029,0.003943538888906176,-0.6556140896932302
646,-2.39482324061236,-8.942446211480028,-0.05348676843291508,-0.010250649468106138,0.005381040840761436,-0.6683578429411645
647,-1.99418469883636,-8.75743247536181,-0.02610422963284771,-0.009346240554580694,0.006539117362609531,-0.6743441283534989
648,-0.9459683569274489,-8.827373857435154,0.15397121641630265,-0.0070334034185314375,0.006762097054030068,-0.6693244169217473
649,-0.5224629278576433,-9.146002374002876,0.1536849543966075,-0.00612091418686111,0.009406838338956272,-0.6812097764937233
650,-0.8930631112768268,-8.91630020255352,0.1714357764866411,-0.0038996512195525607,0.0068539349932955525,-0.6765128355636965
651,-1.176640078833162,-8.739110165964675,-0.10845489916373192,-0.004459450535532031,0.004387052656367038,-0.6663286929061731
652,-1.1210716152987996,-8.733661538845832,-0.43966848081549603,-0.007023723801295536,0.003826309985431363,-0.6574382518784108
653,-0.8240017010184452,-8.888202740523885,-0.47061628914028647,-0.009300177864065695,0.00553614432406483,-0.6539898827771662
654,-1.442858189277675,-9.304070508021493,-0.3218601828747606,-0.00932802065847724,0.007239705670799132,-0.6497510283634048
655,-2.065467441803753,-9.208405305765194,-0.20552964482466635,-0.00865835115495217,0.005260064004743583,-0.643320900291759
656,-1.7851539173412072,-8.981253316126374,-0.3561891573184449,-0.00786065720474068,0.004203310287727944,-0.6375386378749827
657,-1.0641092321383676,-8.953845435618064,-0.5245164031844647,-0.007037112349003541,0.00419388648137576,-0.6357387766770701
658,-0.7480369916233167,-9.299655655826973,-0.42126653937955566,-0.006081926295265724,0.0043078638389906065,-0.6406850264018749
659,-1.4746058433453875,-9.281193702263991,-0.41023054482847887,-0.004338810013632578,0.005223463668184997,-0.6517055789356894
660,-1.5801360736750356,-9.18801073774343,-0.21792837305757648,-0.006270694270863579,0.00385213805215156,-0.6475008466299392
661,-0.9716111248319784,-9.008604089870904,-0.19724984700242917,-0.006752892047426712,0.004741932685731873,-0.6469014959993649
662,-0.47168604282742843,-8.957441898570167,-0.22294233279900258,-0.006788827921903386,0.006422512778476504,-0.6509117965545723
663,-0.8792128934312134,-9.198440423772547,-0.10451933551897281,-0.008337323764640003,0.00625867449987171,-0.6556533298385406
664,-1.3281776084104282,-9.249250727544295,-0.04677512636130531,-0.009161303463158802,0.004542523018971734,-0.6573558005091009
665,-1.1740770128890274,-9.166160965115875,-0.20887605749164997,-0.007882556770630596,0.004269236301282808,-0.6510036101416948
666,-0.34197649806357944,-9.032253458002756,-0.27445567053386316,-0.006221111442210195,0.006896816827232382,-0.6495786586411703
667,0.25523367977964967,-9.011226187569331,-0.342642346317017,-0.005148905713644238,0.008401319100200371,-0.6505804300753093
668,-0.2593233749009367,-9.211625710436865,-0.4829545522236504,-0.0051596907465197486,0.0053345500658853245,-0.648872155778763
669,-1.156763203207241,-9.335382490924804,0.00686180048060793,-0.005170766467678187,0.00532624479607436,-0.6471737507846131
670,-0.9352210212492673,-9.151776043868558,0.1743849710111936,-0.0059187028547624115,0.003816542196037165,-0.6432777294301705
671,-0.015337298506199415,-9.006985309708012,0.03944034263136878,-0.006240628055521106,0.004214887569026561,-0.6432184418508324
672,0.5672047977220946,-8.96023239254763,-0.18115236979979554,-0.006532284383904704,0.005318879014167667,-0.6454616997997127
673,-0.0337221790011963,-9.002953700359365,-0.2710642538758972,-0.00726341227028981,0.005222386191373636,-0.6463690988427073
674,-0.9042339164417907,-9.150805923742611,-0.310742458999857,-0.007296553516784966,0.004334505402402071,-0.6412716967734735
675,-0.15904546872335662,-8.950315341216392,-0.4220404520767512,-0.006589883850076859,0.004956113575073635,-0.6383841101367486
676,0.34588425469755074,-8.920460194003066,-0.2152210877162654,-0.006254594492745159,0.005297303475623851,-0.6410962139210481
677,0.3583245317288245,-9.068186069036495,0.04823780680239501,-0.00655015714112194,0.0053081412463865715,-0.6432653147233971
678,0.07276225023955118,-9.241326065907428,0.0735876131574055,-0.007205488992701921,0.005395972819538854,-0.63964837860301
679,0.026250093289682558,-9.101636021005906,0.15887630592994856,-0.006364817591608503,0.006261611379579842,-0.6404901328383029
680,0.02760413483363191,-9.393476845917345,-0.14225024268795627,-0.006248306173335912,0.006378877599044734,-0.642079663627671
681,2.7444593982534418,-9.17975051130784,-0.3257391642605123,-0.006251001957698944,0.005838857251036044,-0.641656702494563
682,6.056342718893193,-9.059567641955926,-0.3631679515202019,-0.0069160604933156435,0.011416918858673398,-0.6358460386443885
683,8.048097955693365,-9.572609563867948,-0.36972544304712596,-0.008178279782347274,0.024235239359542297,-0.6179235090839278
684,12.870184627263903,-9.43776693259722,-0.6388714657650397,-0.006025136437601098,0.01275620851534406,-0.5635184307689627
685,14.634105401011727,-9.149423114735475,-0.46761509258483575,-0.002616447047619311,0.010197227132051755,-0.47710309056644284
686,14.995642030830787,-9.010477474241466,-0.26121268860755886,-0.0009158659513909054,0.00648960596135521,-0.33874730310285855
687,14.174592433949357,-9.067454532882858,-0.1733780278858768,-0.0002985025488375391,0.0023675451019002217,-0.17713943128504822
688,12.108692445812084,-9.31259304712556,-0.2953183910218805,0.0002791179299038153,-0.0003220672619570562,-0.026098043134076154
689,8.355406180784549,-9.778157042758014,-0.6936615672702352,0.000245402959217506,-0.004424007042084233,0.10721961743518395
690,2.5864061130077096,-9.922211835937514,-0.40089153363256325,0.001650909000435238,-0.012353020257605535,0.24580580079849423
691,-3.8096061587317656,-9.67030701399298,-0.08997616127033109,0.0047723430430401965,-0.02099438357357572,0.3136978258245303
692,-8.775518193629589,-9.381026979145767,0.0024317063332146213,0.005301160567506694,-0.03301987114615691,0.33290244842600475
693,-10.758669411900364,-9.390261138559406,-0.13436717194085585,0.0011428311755152531,-0.044410994916542226,0.3228200827423182
694,-10.480086071853316,-9.586939953518113,0.0638498697337143,0.0027839737724718473,-0.017934261649024993,0.19878498319518456
695,-8.914089253394458,-9.259533727969412,0.23021703854282777,0.006652076390625661,-0.015132955631691385,0.07410596461440044
696,-6.125085817417317,-9.101231203831937,0.20724844747017268,0.006481446658977096,-0.011593544110147083,-0.03990856493490018
697,-2.84210407603904,-9.21348840709922,0.05385145125156547,0.0034563185528746075,-0.005935757990947902,-0.13824738391989355
698,0.2977153680739036,-9.483815504661699,-0.12620318573245723,-0.00011544208149164665,-0.0012296789823456583,-0.21338098694782542
699,3.616724967686105,-9.40798893038353,-0.2292582117623657,-0.003296448637495311,-0.001968750754851157,-0.23803983119649508
700,4.79078768073332,-9.10958611648528,-0.3489823484748812,-0.006005757183246975,0.0032277361076034723,-0.22115580103374483
701,5.221228374911265,-9.290492592094349,-0.35572756291842217,-0.0071838311109736624,-0.0036571627730170053,-0.1783898021076991
702,5.0190927557383365,-9.55524470752543,-0.29677173821616576,-0.005279082368076479,-0.016734567464733813,-0.11865569898389365
703,4.195560860465081,-9.521583558439985,-0.22921252494052902,-0.0002355602356200263,-0.027544838150159318,-0.05002510465823883
704,3.037652953239543,-9.558845490308634,-0.12185047505309013,0.0026360441183083095,-0.03393634360953304,0.02220177453123546
705,1.0584702592159925,-9.77582779361586,0.2542623459935779,0.004122158404624876,-0.03947480027088404,0.07770730987071345
706,-0.6319011921874786,-9.690854302405548,0.18934809055142104,0.004491767829544384,-0.047599575920992426,0.11205679221049145
707,-2.015715245029164,-9.446441914284922,-0.12413054990119747,0.0030790946596187894,-0.05578463749259323,0.12574792948800975
708,-3.0709841195495455,-9.278838002760963,-0.3707834435892603,-0.00011487717645293315,-0.061038262167660104,0.12202828366786495
709,-3.0562960699864314,-9.394434161007844,-0.3315262303044748,-0.0025215704221976513,-0.061823674644528974,0.10671870543814148
710,-3.306403939122873,-9.138883443642442,-0.34140988904003616,-0.0010511986025441658,-0.057095429176158535,0.07236692043712739
711,-3.1908888829161692,-9.440269945085785,-0.3039977232686343,-0.0007662725503608745,-0.05566085324586366,0.03530398059247881
712,-2.476736564526028,-9.651218122472299,-0.21560595564154944,-0.0010255820178036632,-0.05530579798801729,-0.0017192829612849847
713,-1.1752363378305692,-9.279394585248212,-0.05366846080651021,-0.0010594401050617779,-0.053808000545378064,-0.03540289388197469
714,0.1873250599745285,-9.111217304758496,0.3317971119608733,-0.0026143055847256025,-0.05458162853000763,-0.0532496500546303
715,0.47376031019555065,-9.574351774331616,-0.2818822565854642,-0.0012270049547320634,-0.05619286151531201,-0.05956123456467609
716,1.2730608785850661,-9.740381785754215,-0.5113801308357765,-0.0006619094703119204,-0.05849243619430279,-0.057425024924970425
717,1.683736506906302,-9.598901907224093,-0.4183415079079591,-0.0007161106933284403,-0.0611205486922622,-0.04906748833761723
718,1.1218692610431629,-9.320098306660928,-0.2932167008210457,-0.000539096302096691,-0.0637705704262574,-0.03624344536026738
719,1.0410849884460402,-9.205998912901158,-0.48775351435749675,0.0010153075117733225,-0.06644557916159488,-0.01838477346039002
720,0.7689274424533683,-9.16110935092436,-0.48047259234026374,0.0002974058445753454,-0.06990138711136615,-0.0005514096672077405
721,0.3344162835114093,-9.137287367075473,-0.0058404506917058285,0.0004454895669238017,-0.07514057989736826,0.017298967347498896
722,-0.28582520246621446,-9.241484454488381,0.39755721579278935,0.0008504174123884836,-0.07983359780576961,0.030983033691908468
723,-0.970350867269373,-9.42523216386189,0.35455078101908616,0.0005458191363818311,-0.0824487296528192,0.03672681580279128
724,-1.1466074620267488,-9.110952322853471,0.269410075371345,-0.001096690915771146,-0.08501391694885405,0.032470883377341636
725,-1.3572139191744703,-9.127016405357983,-0.12199928596190922,-0.00041083774710554935,-0.08676059496340159,0.02127695863532761
726,-1.1110990442506241,-9.44519793650219,-0.5360866529105449,-0.0006371324661350834,-0.08845185227238964,0.0144536291885946
727,-0.9089345767143013,-9.649254527938876,-0.5869907230644816,-0.001431167269711888,-0.0894322983941518,0.008096866527205416
728,-1.0076242619962512,-9.443179176779276,-0.19726002347170327,-0.0017932913881074626,-0.08966898134893503,-0.001385973164138446
729,-0.6247557700510629,-8.969340047391727,-0.16227905953205393,-5.5473558558038935e-05,-0.0913448236554465,-0.011547978042480362
730,-0.3875466562337889,-9.112012668754225,-0.13403913044355892,-0.0006374663418436445,-0.09224934074137901,-0.017854548236667333
731,-0.21372297410597743,-9.483140000566577,-0.20436007222748795,0.0013240077349558422,-0.09252904404173524,-0.019812422657979195
732,-0.1356141435041995,-9.631612373851505,-0.32691558639671914,0.0015077840994854133,-0.09398331307400566,-0.016969156863854515
733,-0.12043676691076369,-9.35910967053165,-0.473106661752364,-0.0018601998029334822,-0.0973116436290466,-0.01149389505005746
734,0.07099747906185322,-9.132766351709472,-0.7136966024128755,-0.0010184215096898036,-0.09989545258922229,-0.012323711921144455
735,0.15842090391282937,-8.934956909888337,0.26116491448906365,-0.0009554320372442858,-0.10486493833613227,-0.011593328160393292
736,-0.09162586186500545,-9.105644818842496,0.17999244270446618,-0.0015511255253563513,-0.10775162864183833,-0.006185854570042684
737,0.06850190203621456,-9.195037568869934,-0.2728006584008607,-0.0017431563381026692,-0.11061368948774106,0.003253845062224285
738,0.712062143705866,-9.02391867986174,-0.4231335299053928,-0.000828602156922456,-0.11452855255735483,0.013404529531167678
739,-0.07962372774601312,-9.318337534734866,-0.4313876048594907,0.0008309170514155108,-0.11626332896927084,0.015128961995203985
740,0.5544783353536996,-9.52367874301201,-0.27884647697785325,0.0009575014376664781,-0.11958229266284956,0.015271208311323912
741,0.06743921202542202,-9.38606499093849,-0.2249330622067196,0.00041249787550401825,-0.12010654668080431,0.012400662812251127
742,-0.6447708663122307,-9.402326021946367,-0.150702107662698,-0.000413778683496816,-0.12144114837151501,0.011043581623803929
743,-0.6670620130679514,-9.689131924805883,0.03005119875943834,-0.001109494483926498,-0.1253012621639995,0.012393069679084965
744,0.19218888637417283,-9.257938275099221,0.2413235572215162,-0.001081651689514956,-0.12700482351073364,0.008154215265323962
745,-1.3115675145095573,-9.426978420767618,-0.08801300525164252,-0.0018144017954267078,-0.12789598560364634,0.0015390789855390598
746,-1.026590549060838,-9.362533710735937,-0.36378927932248384,-0.0014929439989748636,-0.1287426402724144,-0.0017867071777463712
747,-0.19172179702161812,-9.323468527821007,-0.5554733663711814,-0.0010077430313952468,-0.13108334107120645,-0.0031057135754375027
748,0.03181807640798321,-9.405243578560974,-0.6060942967620613,-0.0009938749301677528,-0.1342900806862918,-0.0051750503105987096
749,-0.22522279094649827,-9.090497497111192,-0.2531956713556519,-0.0009442085419076257,-0.13252758850102847,-0.01282184565898134
750,0.22349318579154434,-9.145211255081598,-0.15479520226025748,-0.000961124222015942,-0.13644483066184365,-0.010158411392465488
751,-0.7476341878371235,-8.805573272242206,-0.5242555742166131,-0.0015164562206158778,-0.14015520966532521,-0.012559286984077845
752,-1.2739828910784379,-8.85450172164858,-0.42794818929626566,-0.00163816509345094,-0.1428643204260365,-0.010636235020548473
753,-0.3778148622416976,-9.532836441341884,0.18018194302733212,-0.0008791857882528378,-0.14544746812237583,0.0012073125058511694
754,0.3301491267005128,-9.640341541306165,-0.8141570605088269,-0.00014306504765587659,-0.15155960586689668,0.016520675109981803
755,-0.09092479593317863,-8.885210160995676,-0.8517371177902395,0.0007221005021929132,-0.1511126716982086,0.011930648799273778
756,0.08134697006925051,-8.97004361125318,-0.048592342287090806,0.0009838043770148423,-0.1532153597858583,0.01183681079647872
757,-0.5679543413437829,-9.093631299743372,0.5582786122255893,0.0002588651754569752,-0.1566584560698105,0.01066175314178399
758,-2.023107616146757,-8.865017844123033,0.45727036061492365,-0.0010533061895916926,-0.1597488356933423,0.0043908035609811855
759,-0.7726649966735977,-9.148457304342692,0.33020301351221076,-0.001003317074570273,-0.1614365999370968,-0.003244061042691202
760,-0.48455419378006714,-8.919832017226465,-0.42894892571321447,-0.0017971448235049475,-0.16397714247483547,-0.0020990327327670396
761,0.06665119962305674,-9.037452739516274,-0.7767959139559517,-0.0014909570252193485,-0.16538245097824444,0.0001951420188240501
762,0.33783484314151063,-9.031634026480035,-0.9030621814589728,-0.0006348619726509286,-0.16814074819350375,-0.0028800568287858357
763,-0.13182770805215943,-8.819880206908094,-0.9144155149975028,-0.00024818779629979544,-0.17345422188290424,-0.008596318591185058
764,-1.4640338034266571,-9.276803946921559,-0.557238221908397,-0.002001890662964214,-0.17955188864951033,0.004139732456126667
765,-0.518599889819864,-9.627463125425255,0.9891176102302126,-0.0020874659834537457,-0.18150900589274405,0.003239453215699443
766,0.04260046577084564,-9.660463164770295,0.8096012136031328,0.0002353950602300228,-0.18323869895819045,0.003939547118287715
767,-0.06038139243791729,-9.358784564102663,0.29974470141401494,0.0009680234844853723,-0.1830304343378734,0.0029872781082683573
768,-0.43174017931830716,-9.0223341454456,0.1392187740367967,-0.0010225420550658798,-0.18145367052780753,6.00404119121979e-05
769,0.3041311037938243,-9.53812265732404,-0.8712474967831497,-0.001038911030879053,-0.18405341403596664,0.0026161960624760234
770,-1.586272681101193,-9.09407146272611,0.2819803794177731,-0.001023815659940312,-0.18581097275707814,0.00033288462386122053
771,-0.8994802182584194,-9.34123685280251,1.1888936531660517,-0.0010612827822603498,-0.18816770198726707,0.006119725466005032
772,-0.3888624230454583,-9.621539952572407,1.0404259543594285,-0.0014418819879134562,-0.191146445079943,0.00664732594493374
773,-1.1413565476429812,-9.45101760307251,-0.03723047581578033,-0.0018802768724066547,-0.19420271481284002,-0.002332583099379502
774,-0.46766467434818765,-8.865420553320696,-0.46560161120972904,-0.0010164330538264424,-0.19590694825385466,-0.0065613970455498756
775,-0.25714557537581534,-9.210699677521127,-1.3462401494334988,-0.0018840650410162836,-0.20100317452886432,0.010253321224203226
776,-0.25579856661929845,-9.107984689955039,-1.284927283448365,-0.0014942108610386602,-0.20067245652212407,0.0029565458383862425
777,-0.3371289761808672,-9.04970169861401,-1.0529855671522774,-0.0009734574963200255,-0.20039462780853104,-0.007129018541364276
778,0.0622943039343441,-9.169824930090677,-0.9908806777333774,-0.0013075882561904137,-0.20332984377629137,-0.008849939905407512
779,2.325722741610093,-8.824270672767518,-0.5118787271629478,-0.0029451808025016575,-0.20761519453348365,-0.013949520173260668
780,0.5309925500674357,-9.117550560630026,0.1639679350148901,-0.0014714540975633607,-0.2094923702805819,-0.005193244638368826
781,-0.43305808558324715,-9.241194811116554,-0.5497336020438681,-0.0010769220115739492,-0.21434362976530735,0.008983646551483936
782,-0.21124926334256564,-9.01957064355053,-1.1465223109291753,-0.001082481563601185,-0.21760772405295614,0.009894202337631523
783,0.5610968248406653,-8.406022132277714,-0.9193651146341486,-0.0013478429581116474,-0.21808807338057523,-0.003503964445082523
784,0.005888551354931907,-7.486311178345912,-0.6437314248970147,-0.003018818758128292,-0.22067401737461806,-0.0035150893025705458
785,0.1629369454110832,-8.719407753092131,0.1752169277664456,-0.0014793579890137105,-0.22160671177577515,-0.0026766551704070505
786,0.3591804166192892,-9.108167047514769,-0.32425289008048663,-0.00037481945737233746,-0.2169119743260542,-0.007280618817325351
787,0.7654041542583296,-9.412421925141746,-1.2390938000325957,-0.00031988245881971774,-0.21482099060633075,-0.006589865925383434
788,1.1211319675049503,-9.842603580063344,-1.5315344288758945,-0.001019241182334866,-0.2171889700407662,0.00019000469186331915
789,0.42883523143006375,-9.516189806506842,-0.0747530080135257,-0.0010027914869703322,-0.21545219540950372,-0.00236316687285783
790,1.0883275240424046,-9.113759547325254,-0.32288834863659843,-0.00028589403845673576,-0.21712907108294982,0.011515142677587912
791,1.5672000378480906,-8.739110609263196,0.2529544304820269,-4.0765162329328893e-05,-0.21699101727404652,0.010113047369502375
792,1.226746026261244,-8.536393951515585,0.42972652695786184,-0.0011757873816628764,-0.2152900673695594,0.004043021674673705
793,0.2161647123210043,-8.66327111393633,-0.3691137491058125,-0.0031321930962365007,-0.21459512102225015,0.004060204060428921
794,-0.23426880761451133,-9.316681940056588,-1.6241062286094823,-0.0032312891386975136,-0.22070658730297213,0.019363535615792352
795,-0.7517098154301927,-8.997966480405873,-0.30159906056797203,-0.0014999594428486626,-0.21243177056501544,0.0024969565702415053
796,-0.2570622501141776,-9.503004321912393,0.23462795980220008,-0.0010182599002014406,-0.21499946357160526,5.697640310788153e-07
797,-0.5521007240790199,-9.435503961807065,0.13712164345155206,-0.00021114462826008883,-0.2178093885494554,-0.0026050405315290012
798,-1.513345401367803,-8.643109292634218,-0.49163671719577856,0.0009208701459242146,-0.21722653913231654,-0.006041570494785986
799,-0.2188386332054236,-8.82323188003465,-1.800567845077955,-2.4760407963135042e-05,-0.2207583516669298,0.010941188347092103
800,0.7472781645736104,-8.753123514916194,-0.43672075916121217,-0.0016240211834817153,-0.21828288798433756,0.0030619304170985766
801,0.7953917358059017,-8.258681999114643,-0.07118262742274885,-0.0020068400391885263,-0.2150127523646057,-0.008526675131071608
802,0.5384642173062337,-8.505445524226623,-0.18363280570259724,-0.002406583875846256,-0.2165004650713081,-0.008301418790463632
803,0.28522621030737005,-9.353389153601528,-0.2144812647071883,-0.0029292271261023304,-0.22128717570303907,0.0022700941007396526
804,-0.09764228163782736,-8.900453993587137,0.3097077568055368,-0.002077641291509281,-0.21868891319796235,-0.00027602770172841044
805,0.6776993233946687,-9.396984292768167,0.2825869883528814,-0.0013009486686634114,-0.218680104489254,0.008825183483091957
806,0.384796282087881,-9.080014163883273,-0.4664769995827275,0.0007787574603838664,-0.21803361387854198,0.005167554217888372
807,0.2505444877450209,-9.021598593701837,-0.5953681849259017,0.0013006244530169835,-0.21756682623927112,0.001176233314591975
808,0.844916343409313,-9.500003310308875,0.12262813233431163,0.00019590794946459524,-0.21757781898407244,0.0035901590843724486
809,1.8437037137011087,-9.734330920036179,0.4957476265106958,0.0009812917834527203,-0.21761585831598296,0.011241817108224526
810,0.9194911595382713,-9.059818865779379,0.13818886164211844,0.0002758778210714096,-0.2116017578125287,-0.004524939064685751
811,-0.05912557607401592,-9.334622008227807,-0.5406182597170869,-0.0030627646082550864,-0.21383360578825605,0.003007363501201842
812,-0.0006924484542252807,-9.20767863384224,-0.8042531598959111,-0.004446650639806515,-0.21443590522345232,0.010055742465987718
813,0.8422269872149338,-8.548922410291686,-0.3760715353791685,-0.0029522153310467527,-0.21174125879010705,0.006713518346794829
814,0.6434487164607824,-8.740341856177865,0.4830026341205723,-0.002077999312867508,-0.214300155207725,0.0007892740734917519
815,1.2797661008498622,-8.878053358567692,-0.8107143578530874,-0.0011647304224875867,-0.21682954917102926,-0.011004759061565894
816,1.764138922885592,-8.614332162770829,-0.4811732306678214,0.0002793592387531435,-0.21751282466581867,-0.009700510755025574
817,1.710527888917449,-9.043579326860385,-0.45767794027388137,0.0010415038432879634,-0.21884838286588,0.00415793869028092
818,1.2173772285258433,-9.660843127957254,-1.253353082801416,0.0009669550410430651,-0.21962250835916597,0.015602399362589704
819,0.916761814134097,-8.12959666260631,-1.7094014743735355,0.001110424292831355,-0.2143407976708125,-0.006489974085413217
820,1.4087000682824633,-9.44322602728357,-0.1893848255048502,-0.0014511787488462003,-0.2169191585196089,0.00510008050586887
821,1.0031880704157479,-9.297659670919485,-0.5210671174458711,-0.0033439614122786716,-0.21822931360796907,0.0062448100394405445
822,0.4607840056486561,-8.950215559088475,-0.659098314790483,-0.0037817441200067243,-0.21909548683767682,0.0070507826801317185
823,0.24666962059968744,-8.980335015764942,0.1380055118899251,-0.0027624946355996887,-0.21955155286575925,0.010269282933874474
824,0.4890224383911079,-9.192274817696376,1.1659032236858173,-0.0010913574722021605,-0.21869073708622527,0.010286373163717865
825,0.04223541897803827,-8.662540668801682,0.29997485919085554,0.0006672418340409814,-0.21776294380249883,-0.0032282267385859297
826,0.33066768233292904,-9.644803464520068,-0.14561326923273665,0.0016497965428973007,-0.21888301558669732,0.006676543078551507
827,0.8926473349904633,-9.942458350265346,-0.028175599588702027,0.0012166533462960277,-0.21718468449298622,0.009688699702179164
828,1.146661479429305,-9.248323208358075,0.24024222759748307,-0.0006036059836486262,-0.21325411597186816,0.0005182838914029067
829,0.40143664579664406,-9.19715073297571,-0.3045655138069548,-0.0031038620683772997,-0.21324830226314034,-0.00035827219747511246
830,0.7686378848745101,-8.511791666125838,0.32536683867594174,-0.003972214900501477,-0.21413550769095582,0.004728301823934486
831,0.5942692795340723,-8.673854554283597,0.42217663447679143,-0.002854033373115231,-0.21105715685106705,-0.006125532054180234
832,0.5101841514217287,-8.980404096593615,0.14650714011697757,-0.0015811068848087706,-0.21193009646406824,-0.009439292648437816
833,0.4022857530841032,-8.95339805513925,0.10500675326277473,-0.0005589130548825599,-0.21623759336657591,-0.005454881417739082
834,-0.5483291869741009,-8.34599774315329,1.3120346883772722,0.0011840475203124985,-0.21533544143238018,-0.01716574599879462
835,1.1657661970415827,-8.963794347971438,-0.12405957638196125,0.001876342558633872,-0.21803134230481924,0.0049269270582047945
836,0.7871704863477763,-9.031700781637095,1.0782818310107378,0.0014346751675773169,-0.2193252794166966,0.00711086709502995
837,0.5890668396471532,-9.337138265020144,1.409933333999068,0.0010779496393769515,-0.21796032403563512,-0.0014461581599849054
838,1.3914362720489213,-9.744608404182722,0.11445710169969164,0.00047887717865554837,-0.21580879896813884,-0.008723850043329566
839,2.6477487061481213,-9.276282474827227,-1.0299257869344716,-0.0020673624465090113,-0.21754922504065763,-0.00034052229692465284
840,1.120681153236303,-8.138468659461285,-1.5160036214624268,-0.002897119414102536,-0.21668223965566275,-0.0012031356288071692
841,1.1637721361076152,-7.748575662797808,-0.91952521893678,-0.002528772340423786,-0.2178361398146763,0.008925836450425377
842,1.0182894396417517,-8.172058450036866,-0.5001795624235534,-0.0016827203390047656,-0.21779096987698687,0.00733512515809093
843,0.2433254140679556,-9.044254520705563,-0.5403662848240369,-0.00033865811156252065,-0.21669217395444468,-0.0034442892460350987
844,-0.45056025849129305,-9.614917843448996,-0.47601425501031297,0.0021181353038335115,-0.2175431492800562,0.0008443963037388091
845,-0.4549666733602275,-9.432909431391133,-0.41846614792888925,0.0029199688331861683,-0.21584441398070436,0.005942882762870042
846,0.6152031602611415,-9.194922325867118,-0.22112993326513958,0.0011934220780857327,-0.21346510263568097,0.007115238294828871
847,1.0860349491376018,-9.130568040810486,-0.24518996234000115,-0.002142551485089119,-0.21129581889136623,0.002255183794927937
848,0.5601273163350833,-9.21937957479462,-0.27537044077912354,-0.004936972775953388,-0.21068121292485195,-0.0050851964977947275
849,-0.2639980488717907,-9.23494658497573,0.33749891032374346,-0.00409043975750076,-0.2132458718362188,-0.006764661774014423
850,0.8963578666141545,-9.22523130609423,-0.49664399281164473,-0.0032439910873326974,-0.21496337014207267,-0.008446273347984612
851,0.4821633250712164,-9.020203708761052,-0.3587063310465391,-0.0004799683440623446,-0.21668817403493495,-0.008800219851714136
852,-0.42782961139642345,-8.95694737032137,0.12331328749137739,0.0006287377965984828,-0.21980544511020025,0.0009278337891989808
853,-0.7949569873529053,-9.008781443777313,0.6836940734220887,0.0006449974504951262,-0.22182387509920798,0.009046035388686991
854,0.3289538891009991,-8.884803656700937,1.3115449400237031,0.0031896685594518764,-0.2175099655533063,-0.010727647757660878
855,0.29223376519321165,-9.399361988120932,1.208543895422502,0.001474158262449188,-0.2175418352797558,-0.003955693295534466
856,0.5801098514918569,-9.672068817145549,0.4737426779703719,-0.002151874202743126,-0.21688670779342334,-0.0011451580023675116
857,1.2617041720518527,-9.37756162195712,0.8819612547750356,-0.004184006664371121,-0.21695831308326718,0.005420660593367601
858,1.7693553184359498,-9.098831636738407,1.8505798016499395,-0.0037648851941877565,-0.21761390505872977,0.011565288949950072
859,1.0763029345973787,-10.024934827634361,1.1018868240300488,-0.002027080350450045,-0.2175809771302003,0.004573755977304132
860,-0.6030307321187288,-9.936923303913968,0.05875517144228043,0.0005790149405450193,-0.21750826031321002,-0.010678598408688797
861,-0.2890796424105115,-9.586854854434517,-0.20374561239435846,0.0023770212359615584,-0.21755437306061964,-0.0015317395909352186
862,0.2400865568046,-9.238812186247534,-0.10458246017756816,0.003124755981376395,-0.2157642998485973,0.004740583297433511
863,0.036524483657444096,-8.972726551338633,0.3395522506036802,0.0022023443054290594,-0.21302834111767208,0.0031210717429377773
864,-1.139185549547595,-8.780512129228548,1.299047603126838,-0.0011185757034741204,-0.21221876285132046,0.003748108534238114
865,0.7829905366120076,-9.893112516927186,0.3879619588768522,-0.0035917076838829134,-0.21305399525498142,-0.0013734307277618119
866,0.46307796501529025,-10.138318283174698,0.5672302767725272,-0.0021274596732863884,-0.21050791905040725,-0.00977564990205467
867,0.36788641955714685,-9.729241050185216,-0.11113818481140597,-0.0018366820943355464,-0.2116430788740143,-0.010973215202082331
868,1.0734585742261347,-9.106688072863545,-1.131406008176154,-0.002102515956288739,-0.21511849368867592,-0.008629281890700054
869,1.8420095216708938,-8.8615112693753,-0.464312526067533,0.0012202018170363019,-0.21437832312562724,-0.01450838928307155
870,0.7237593482657657,-8.701009393815676,-0.7231450818465323,0.0027699353297039354,-0.21792045205457047,0.004202080119020948
871,-0.17644584933883256,-8.889724597635713,-0.21468936605493655,0.002450877074349116,-0.22003098906622343,0.007546465802605289
872,0.1568195613881656,-9.125685753194077,-0.4618336676721465,0.0025411633206060087,-0.2198831378766671,0.0030535054960100713
873,1.0452001632783547,-9.49703401433074,-1.1354518615517002,0.002687741106807199,-0.2181344450917228,-0.001906725844560881
874,0.8060740746604914,-10.220018271762655,-0.8297149287965904,0.0009730229256872653,-0.21651622548488145,-0.00023443043613755054
875,0.8055844730083878,-8.783616662496257,-1.2637255549603637,-0.001544401544497363,-0.21738467117307028,0.0014360562803446954
876,1.6212911369976934,-8.459919832405628,-0.32543476641152785,-0.0021613222069868424,-0.21695202841031686,0.015194829777187698
877,1.3271119091729375,-8.796064467910938,-0.27217796618324197,-0.0021254730538116653,-0.21559666848557146,0.009673899082818979
878,0.617050490889338,-9.078944189939072,-1.5657059678189231,-0.0015386201419190038,-0.2153082267341942,-0.005527594019733223
879,1.566617588313431,-8.493231747428974,-3.3578205922937863,0.00011913135842292323,-0.2185742962644181,0.0021084933098680435
880,1.0353997957808356,-8.126921382130805,-0.8513403235941468,0.0025811120955506342,-0.21688439635631385,0.008924656481115888
881,-0.07190137189991852,-8.582531576382696,-0.6119722274967838,0.002460250134506627,-0.21445511084074798,0.004921502847039485
882,-0.02946504098104097,-9.438707050885313,-0.534340749219805,0.0007432911040325535,-0.21325462835455455,0.00041792242909300195
883,0.6675025424171924,-10.049800507908875,-0.22099785488319054,-0.001489457218867491,-0.212722450718705,-0.0036662876118065215
884,0.40284714370146046,-9.715685092475363,-0.22056434200260105,-0.003075507434462366,-0.21104367484064404,-0.01073206786455853
885,1.3698104066065078,-9.566326455912796,-0.7568709613546964,-0.003943946183566784,-0.211067915288921,-0.0056476809299328985
886,1.5485284173617941,-9.54129578913317,-1.4665617286402486,-0.004767868027841795,-0.21450054652412176,-0.007328468958368244
887,1.6675349156697565,-9.011319662380252,-2.5125859189077673,-0.002843003495914016,-0.2164402790932572,-0.008363204439993398
888,1.3382046753493975,-8.721538117039783,-2.7238525988742484,0.0005593090973350877,-0.2177545409412392,-0.004918895550564513
889,-0.2053327652786758,-9.918144313699338,-0.5407062175606789,0.0020912414555147815,-0.22193053583738126,0.003362914449891383
890,0.043874475642199005,-9.293820635416392,-0.3794524560476791,0.002168836630888504,-0.22273537951767503,-0.008520545426140617
891,0.09192643357855687,-9.663912213660046,-1.2200633288374783,0.002840732953990887,-0.2194444065486096,-0.008828015126558965
892,0.17636499231467925,-9.766073548825565,-0.4826811514759381,0.0013380140167370326,-0.217537132463542,-0.004895726391080132
893,0.3834851870139937,-9.347347576097036,0.6059465710617746,-0.0018043657352564751,-0.21783883739671175,0.0035235246233200155
894,0.7594603221876945,-8.673448669696471,-0.6882811246810145,-0.00408223850687348,-0.218580732035509,0.018355497733213096
895,1.9325458806284503,-7.826484206286605,0.9998265905993323,-0.0006965366509649952,-0.21596291768453424,0.011594658709749774
896,1.0727619990992419,-9.281388513965439,0.5868526657829887,0.0006986182730515349,-0.21471169516696273,1.994674704014574e-05
897,0.7288970861414624,-10.041609022198744,0.11087087914527194,0.0010925015350439088,-0.216236409554664,-0.0037081083005414016
898,1.0167098129150633,-9.443081954906896,0.12528458511037424,0.0015813886988201528,-0.21677715002668854,0.0004825440592380779
899,0.9434754392389906,-8.171616290555543,0.3457962251212092,0.0029611573713330696,-0.2113402199245885,0.006729016560072822
900,0.9503298623684442,-9.357629404678487,-1.1583140432800565,0.0003830662381302337,-0.2148416263028221,0.017748481904659868
901,0.7447664955613553,-9.471010458573677,-0.6442098792231425,-0.0006473345763388973,-0.21120569323490013,-0.000846242413138687
902,0.6723918240786092,-9.314098244882718,-0.511280965262082,-0.0019264413797042343,-0.20988823738723833,-0.004864784439480187
903,0.854607334430209,-9.205598044251923,-1.2179213876521815,-0.0025909053816143574,-0.21029253390448036,0.0012190257885858142
904,1.2681243250865217,-9.271565940415233,-2.1234721876831446,-0.0009199250595445381,-0.2079982438968942,-0.006987473791120018
905,1.4644545875801354,-9.828355178265232,-0.3014496257444615,-5.6784762523974915e-05,-0.21056544558432286,-0.011213313070272813
906,1.9393728373770318,-9.94875501112457,-1.2805420405918562,0.0013841198329746058,-0.21391387007586227,0.0004900936728266404
907,1.5032134103914714,-9.651314234340544,-1.2506633334524033,0.0016020051389152707,-0.2164120048591788,0.005687854340059373
908,0.7634536429185353,-9.178450521929003,-0.5237433448349644,0.0005179904147056047,-0.21812323949890539,0.003133388232116744
909,0.9791885524043082,-8.832488430803632,-0.9402300485331216,-0.0008492867204156069,-0.21965729388538166,0.00045880694434462303
910,1.2391670296714434,-8.197339123713308,-0.4571089453256326,0.0016847487327924207,-0.2187763922411553,-0.003758888763833265
911,0.5531069843951868,-8.172787332562969,0.4184172152177156,0.0006684413949655015,-0.21869449249153242,0.011464769253949944
912,0.5147313522304228,-8.546023234219868,-0.11779832547032199,-0.0005868818557951447,-0.21824694594670474,0.02080396263827203
913,1.016788206391853,-8.842383454211415,-1.0115458968864317,-0.0005724095169457365,-0.21624187586108815,0.014031046618316547
914,1.2536254810189527,-8.629040509900102,-0.32592440238225917,0.0009994828805418652,-0.21244944344662697,-0.008118696318132715
915,0.9074771129815511,-9.31685247697821,-0.22506111623687325,-0.000731450863504297,-0.2168053759869426,0.0012153857864076155
916,0.7996698116991701,-8.54508461529804,-0.6115582474048302,-0.0003898249798224053,-0.21618434160745065,0.009158089054763261
917,0.8610657471487881,-8.33255107113766,-0.8866080252966472,0.0018392323270175056,-0.2149923667440955,0.01633414308491156
918,0.8969617654691882,-8.76301260155114,-0.702753404236468,0.0032689739137271826,-0.21441708071955495,0.017332339173642138
919,0.596998014953769,-9.172808372398444,0.10065155587196462,0.0009004747460884533,-0.21416094307877,0.006004310124019037
920,-0.9295799363059456,-9.38137509678693,0.9077734061826562,-0.0006760753883915838,-0.21150173144641213,-0.00845835158594888
921,-0.785648846695713,-9.958002066772092,0.311242333577281,-0.0016899807456002345,-0.2103669716906023,-0.003225051504008215
922,-0.07856304435369918,-9.28574896049435,0.42436897954673347,-0.00203535606156538,-0.2119963109950468,-0.004207963053469025
923,0.45413316453361874,-8.48160565735527,0.12649561087561545,-0.001457361880754474,-0.2145731574803097,-0.008198796058910282
924,0.3292420029072265,-9.346864033243548,-2.1137966655668903,0.00011289816357549826,-0.2156014872522347,-0.003081655908377889
925,0.3757541598570949,-9.9996249825221,-0.1700468865718487,0.000915134987797002,-0.21821435818022944,0.0020317397826473157
926,-0.28791129923232905,-10.337803395147976,-0.042940805109906326,0.0017869412002897646,-0.21862226474284036,-0.003461214449812432
927,0.2793653923698058,-10.571945235443485,0.28101814320440555,0.0031594636728901233,-0.2185859625127497,-0.011086490878489053
928,1.230523593066788,-10.054629406614186,0.730351293328999,0.0043007662910649926,-0.21712302021802427,-0.015596897952275333
929,0.9339612666589125,-8.514597656230096,0.7171237146520814,0.003850400516028288,-0.21290040024765053,-0.012251678243623026
930,0.02526060035421991,-11.428027334117436,1.657017310394779,-0.001301209244201996,-0.20955071775133194,0.008901867612804207
931,-0.29495098004876896,-10.5990048326662,-0.20806573823218,2.629120349126161e-05,-0.20317842889758148,0.0010044561103212685
932,0.4822166455787374,-9.526900542828042,-1.2251770937640774,0.0005536069381937438,-0.1993317126647714,0.0033751185146517226
933,1.2604727838673877,-9.24347674517648,-1.1293285590589557,0.0013546341010455382,-0.19677717009687168,0.012648723436395684
934,0.8106879858266076,-9.777258099544405,-0.829620050865613,0.0051472073722650035,-0.19255229146284086,0.01413742458353503
935,1.5509656838075145,-9.770135938176523,-1.0889014067667968,0.005097051772155902,-0.1891402124412199,0.021767123613240177
936,1.9475517465584948,-9.614656977123087,-1.6740447511049181,0.0016752618747100597,-0.18779572225834626,0.007948525586504438
937,1.3869442208147458,-9.581555886945292,-1.2943654520683794,4.682459486034379e-05,-0.1853434357224973,-0.0038805535306202007
938,0.5759865792428419,-9.412182621311507,-0.5113229004597426,0.0003484962869695063,-0.1818824734371867,-0.006290983308762927
939,0.4152497393901626,-8.9299495722282,-0.28810613201878116,0.0009829801557606755,-0.17854720189539644,0.0003898482841837858
940,-0.22417001825742797,-9.870208903804217,0.17201287175213528,0.0001641323485159938,-0.1759467869234395,-0.002176338415145266
