,acc_x,acc_y,acc_z,gyr_x,gyr_y,gyr_z
0,0.2514475596417428,-9.377257340985258,-0.22331475674927656,0.0013872769034982922,-0.0003541449469732346,-0.0021283412934376073
1,0.2652981712492526,-9.379709065878957,-0.15847655563122434,0.001969784936728244,-0.0009606461202424215,-0.0017502466092887679
2,0.17815439101538305,-9.373930001622544,-0.13543903901304347,0.001124175544556824,-9.710548443579806e-05,0.0008125343848971715
3,0.26574850621344537,-9.389024267413205,-0.25581076304946665,-0.00045276058199100576,0.0007703290563303739,0.00030053153036880577
4,0.2583633497330713,-9.365121306862381,-0.22026478680050818,3.7798822977929314e-05,-4.227584423533435e-05,0.0005548038098195836
5,0.21949934350553216,-9.337404493134073,-0.17611331550981155,0.0010311183273519768,-0.0007321029247772667,0.001069487755382434
6,0.21485595818784,-9.346712123774703,-0.2429761984475756,0.0007841319041499421,-0.00013602645744024804,0.0009414308519387822
7,0.14648901457894778,-9.40815060473398,-0.22471475345575562,-0.0008922996386141694,-0.000971932500338804,7.318194991829965e-05
8,0.1976319844122395,-9.394738624398721,-0.23206466268015952,-0.00029033479548854906,-0.001062885869533075,-0.0015497812293089781
9,0.23648719938442847,-9.375820198195317,-0.25524159417674275,5.116157298734225e-06,-0.0005089863334518145,-0.0015783126452862165
10,0.263758393180396,-9.36693734213851,-0.2806507502349679,6.838561669552493e-06,-1.3020310056444732e-06,-0.001066888150509
11,0.2950344131113141,-9.371494086637897,-0.2815384775391114,0.0001355415848435581,-2.303909363067307e-06,-0.0007998551877980984
12,0.3340324584093436,-9.379746220188904,-0.1869500579094036,0.0009613568455904397,-8.732402001140008e-06,0.0009135458675211244
13,0.3236897923088336,-9.401291638685837,-0.28607779361975866,0.0002869379500705009,0.0007709872250855247,0.0010723546673756898
14,0.24492423384261564,-9.393475931360886,-0.3073755761710504,-0.0005452688389796683,0.0005089466804823212,-5.804811767792307e-05
15,0.16729774685676885,-9.370261421090689,-0.2537440878265742,-0.0010438889292527726,-0.00033871860448901543,-0.000725298064953668
16,0.14613887390260658,-9.354030221966056,-0.1810055354925327,-0.0006529508177361679,-0.0009208272530570492,0.00012846997845438694
17,0.16298988113015045,-9.370094450984547,-0.19096473572907896,0.0018610327606807672,-9.344273226494358e-05,0.0010016401100098448
18,0.2030922758287226,-9.402566076735694,-0.1680466585536414,0.0013287175164224912,0.0007640366240046039,0.0010784935458360966
19,0.21485029120795598,-9.385035855040826,-0.2173216839922898,0.0015978250871495215,0.00048479198218127824,0.0010787362342744486
20,0.2322924594633144,-9.361313102775497,-0.249550931010927,0.0024381275506717304,0.00032776985450595964,0.00037673966559418514
21,0.26024617538916495,-9.369287378971844,-0.21180096088318603,0.0027392276590830207,0.0008948775750901365,-0.0010463605636025816
22,0.18802757298540385,-9.393215309122985,-0.21869006928066545,0.0002197685412597228,6.853557207062994e-05,-0.0010652884739969113
23,0.24495381416966672,-9.405893296266822,-0.2586610427073974,1.6868826052253125e-05,-3.2117476759252653e-06,-0.0026317157755958646
24,0.22940063989973128,-9.389345546337617,-0.2510477357753671,3.9873966753590116e-06,-0.0005696551964090892,-0.001495711244010649
25,0.18027175463464667,-9.374357217187665,-0.2280827513774043,-6.96165886616673e-06,-0.000708178431713526,-3.4694018054218345e-06
26,0.15408313162221393,-9.382430867399048,-0.21489880903834296,1.4127441854784893e-06,0.0001437121497789573,7.040530600427274e-07
27,0.18152620053564253,-9.396538174280995,-0.18133424810838417,9.78714723712371e-06,0.0009956027312714405,4.877507925507289e-06
28,0.19347024239026844,-9.394525805722957,-0.1754349395208213,-2.2797045136817867e-06,0.00028136779991748965,0.0007870788957053974
29,0.15141648302161848,-9.373826176935395,-0.2310679148506322,0.0005581703664316827,-5.108539897153823e-06,0.0004971271786760573
30,0.12679803821143065,-9.345230494975363,-0.24309863965171838,0.0010450620097039,-1.063279490612472e-05,6.140502093113179e-06
31,0.16246236099795525,-9.330327195952385,-0.18883517739349825,0.000757969019783765,0.00013949280295616557,-0.0001426058989819382
32,0.20290477834406045,-9.377066113797133,-0.2932739796638006,-0.0009017137168769649,0.0010073679230426116,-0.001002507891271446
33,0.24067784786127575,-9.365282746343752,-0.26058413411089787,0.0005109273118510406,0.0002703573823216858,-0.0010625863834355389
34,0.22329934578615157,-9.3674797046755,-0.21585712555028747,0.0016193074790003766,0.0005581460225470538,-0.00047788989404395335
35,0.2168319640645319,-9.374952577284978,-0.19681022816346846,0.0017351339137844485,0.0003206125658445946,0.00037591613919811
36,0.24673338648640486,-9.379265397890324,-0.2090959438710434,0.0010321616351200939,-0.0009228274425649053,0.0006141362973741159
37,0.21206845733260146,-9.392446220632946,-0.20402994920400438,0.0010569677977419942,-7.406539328016088e-05,-0.0019452190166157875
38,0.16310102369582802,-9.3857380267369,-0.19995657916796583,0.001048574521670168,-1.130156119189657e-05,-0.000541848618486047
39,0.14475858789134932,-9.378462959866443,-0.21568944966182424,-9.566417626433014e-05,1.643759885209037e-06,0.0005798359979381236
40,0.15092214269125412,-9.380236198598771,-0.22024210061893199,-0.0010519005713735,1.1934825911769197e-05,0.0010607476484159
41,0.16777603140402067,-9.387185989426769,-0.20306688203422787,-0.0008989948094204918,1.0199962656173907e-05,0.0009065558627710719
42,0.17596080634311356,-9.36623056885826,-0.21014996107325112,-5.6752930454906693e-05,6.439167002995691e-07,5.723025460680912e-05
43,0.16483792659127178,-9.404811232357229,-0.25014980213033744,0.0015614974900473705,-1.588717454460452e-05,9.174937484085628e-06
44,0.21914081026233526,-9.404674020476012,-0.2636288867396752,0.000965341687877416,0.0011543456823520151,-0.0011573477529018402
45,0.24993620308290737,-9.379803929130837,-0.26829886640426504,3.334771674680257e-05,0.0017551285468585453,-0.002497553437770436
46,0.2204430790626912,-9.360234917866944,-0.27532937820569126,2.7388955439523436e-05,0.0009021255660109572,-0.0028795946053944686
47,0.23681262894087665,-9.391402364233228,-0.2667201837241538,8.058332223873864e-06,5.232099895363601e-05,-0.0011744815125655703
48,0.22296000738062388,-9.400227223629516,-0.3064656005931217,6.838561669552493e-06,-1.3020310056444732e-06,-0.001066888150509
49,0.2471505437955571,-9.39444471943329,-0.3082199864345397,3.0715533942297e-06,-5.848097813587894e-07,-0.00047919490651808494
50,0.21490183017795916,-9.37828525073286,-0.28575603330841903,0.00036497070100461975,-3.280079493594756e-06,0.00037720590907445496
51,0.12163962403718871,-9.361527793292316,-0.24939950635151809,0.0008791444311624199,-7.71224313849515e-06,0.0010720939472669137
52,0.1745999324666122,-9.36635884011027,-0.18385298878953646,4.2378091603076395e-05,8.01285044778515e-07,0.001067177334269992
53,0.1346667159811833,-9.396480849956243,-0.23262251847220056,-0.0007761994460650987,0.0008091367700576634,-0.0005418066510037113
54,0.22791032233166889,-9.382546407446753,-0.2541181504060276,-0.0010257522201173115,0.0016642811181674427,-0.0004735727552781596
55,0.2954285937568939,-9.354654626641105,-0.22586590680257568,-0.0006643169680219616,0.0010024153429682092,9.164318408733383e-07
56,0.2594246440932191,-9.344557157543862,-0.16424925316509936,0.00015489598941325548,-0.0009002060169214966,-0.00016950518105476807
57,0.2497954971060515,-9.375257463570815,-0.1436202631921141,0.0010055122714304385,-5.787148138491357e-05,-0.0010146573343535192
58,0.2201375014459126,-9.394457719649045,-0.21338812343801788,0.00026868493166793414,0.0008015472053183861,-0.0010614502784701586
59,0.22923114990008936,-9.402783545427068,-0.2378840180579696,3.8367099956428124e-06,0.000470729139181996,0.00012543774212968285
60,0.25290975976317465,-9.385510126280895,-0.2366496896695708,-4.387674951731572e-06,8.35393333554301e-07,0.0006845238283262994
61,0.25180000057649404,-9.352508073683417,-0.24219362023977195,-0.00016733419928828785,1.898567784770119e-06,0.00016874157427525908
62,0.16465622034262437,-9.361344666927666,-0.2936653228465074,-0.001009576078253852,1.145461374064422e-05,0.001018067182439501
63,0.1616488443413808,-9.38816192593563,-0.247683183785869,-0.00025443526069365195,0.0008139213997895424,0.0018814574029977962
64,0.1603939026357639,-9.374619519244181,-0.2570081892849285,-9.093443689437742e-06,0.00046953572066218806,0.0021370655896533136
65,0.16755949225439148,-9.366990536590258,-0.26018260921414593,0.0003718674539689344,-2.6556366721513365e-06,0.0009785688975923546
66,0.19346963518036644,-9.382975678955598,-0.21262474975995524,0.0010519005713735,-1.1934825911769197e-05,-0.0010607476484159
67,0.24739285830850682,-9.379523777328954,-0.11808419856364119,0.0010519005713735,-1.1934825911769197e-05,-0.0010607476484159
68,0.24803437833255204,-9.368676277766733,-0.15435428954636057,0.0010519005713735,-1.1934825911769197e-05,-0.0010607476484159
69,0.2569717866787756,-9.40624350221573,-0.21651965299246162,0.00046189557828867387,-5.931926536604209e-06,-0.0010642143583922804
70,0.21840091472487863,-9.414466532280903,-0.23932202329632582,1.0658729340918499e-05,0.00038730654669103735,-0.0010649843375139956
71,0.15589170995948085,-9.370124671578617,-0.20303702483254066,1.4427300688307792e-05,0.0008863171015108019,-0.0008855053177580143
72,0.23918383139848337,-9.351547276777492,-0.1576027374937295,5.773582304379664e-07,3.5469037790963584e-05,-3.543655146236107e-05
73,0.1780618258948367,-9.375100380752247,-0.19587607571681867,-0.0007858261828671305,0.0016416813487587687,3.2910544020029592e-06
74,0.14617776352043585,-9.390436263904688,-0.19027459131194718,-0.00044037596769995593,0.00152934925078166,0.0006107992598069898
75,0.11221860200626545,-9.370710487364516,-0.2159996159110908,2.2856804326298937e-06,0.0006725161076176184,0.0006768389802867256
76,0.09890197164682508,-9.336232093111091,-0.2590562775022004,-1.77139872602296e-06,-0.00018019647268712252,-8.827915955568753e-07
77,0.23515440151525036,-9.381922752297266,-0.14486397023657838,-1.0145801777668128e-05,-0.0010320870541796006,-5.056246461021411e-06
78,0.2768632461314176,-9.382196632775695,-0.23069018958891102,-5.188304794913999e-06,-0.001064954642292741,-0.0008275025460760559
79,0.2788203662260227,-9.382124319006138,-0.2357007194120281,4.424879783454049e-06,0.00015142281962584155,-0.0004564993221074852
80,0.23788606604031934,-9.369963845831885,-0.20543285025273345,1.1658904509039468e-05,0.0006670762275201823,-0.0007910966534993945
81,0.17409382011141514,-9.353941869278929,-0.17943184879743573,1.0693504932134403e-05,-0.00018622499450040168,-0.0019511532306117584
82,0.1461692938486282,-9.376861265995764,-0.1678293368072273,-3.1615788772905614e-06,-0.0010370720793303214,-0.0011002823589440235
83,0.22438125451699317,-9.387922510311533,-0.19357131538980865,-1.4208841799574356e-05,-0.001063237173117892,0.0005797968988274508
84,0.19941942726823272,-9.362982674552562,-0.12330847846138754,0.0011928683759366238,0.00014909860811806173,0.0016886101756004442
85,0.14514239563835268,-9.347128071281116,-0.10252972747222205,0.0013077303724902609,0.0010522922292108777,0.0013459731616102474
86,0.12308941345881579,-9.359627778055486,-0.19337486160953393,8.615907816911111e-06,0.0008764577815241498,4.29381081578317e-06
87,0.16449474550363793,-9.38005776987149,-0.32793104784016397,2.4150476526589244e-07,2.456720003166654e-05,1.2035595031860853e-07
88,0.1974837659267901,-9.392924030563613,-0.22486782487938362,0.0008260858308013662,0.000818042917014575,-0.0008207792790606954
89,0.12173297125583801,-9.376092829642774,-0.21708252630269,0.002265558058005201,0.00042445018616637826,-0.0010514442948965376
90,0.15237624067704125,-9.35818871226071,-0.16034206378471597,0.002748333951452235,0.0003745148118254053,-0.0006444972726182609
91,0.29437489311681186,-9.356008940258546,-0.09129237629108887,0.0019136397575490829,0.0010445875498580827,1.6394925972142884e-05
92,0.2515251890239147,-9.368708885902045,-0.31941401222077725,0.001076087721896259,0.0010531090719645274,1.1473696437185142e-05
93,0.24342846221399347,-9.378530680691235,-0.29081075152343583,0.0010420111996996945,0.00022336342815629614,0.0008405475867099487
94,0.17149619551115586,-9.381604874767095,-0.2630102213220792,0.001028157521972833,-0.0006274839243853807,0.0016911990945811949
95,0.11337428981840741,-9.373993282492066,-0.18565236380126893,0.0010223038834825298,-0.0006646299984175451,0.0025456732567381525
96,0.09447270935445108,-9.35967142152758,-0.12809027871909404,0.0008357131652629705,-5.255787409499085e-06,0.0028158432667422175
97,0.06702964044102334,-9.352871943395963,-0.33026625974200324,9.903045867679761e-06,1.1717263386461936e-06,0.0011016401060510196
98,0.14807683286559709,-9.347898053049756,-0.2098920204057353,0.0008129640554453265,-7.0389028435881796e-06,0.0010717050892548154
99,0.17331404401386874,-9.371133574977918,-0.29116512196893596,0.0004307180128685776,-3.87096640262699e-06,0.0004451573212633802
100,0.21173356779771915,-9.37866151277782,-0.2944788314561065,2.638489541125356e-06,-5.023563954843563e-07,-0.00041163235234124596
101,0.26141566467877475,-9.368374955936787,-0.18642303830696763,6.838561669552493e-06,-1.3020310056444732e-06,-0.001066888150509
102,0.22578782082625345,-9.391787481457431,-0.25938409872854024,6.838561669552494e-06,-1.3020310056444732e-06,-0.001066888150509
103,0.21716422564985333,-9.380662502912253,-0.2546787285996836,-0.0008029141762166718,0.0008443172315294382,-0.001908991419742434
104,0.2783457913917696,-9.405809448707974,-0.2471415074402466,0.00020523304270863858,0.0010602294263187208,-0.001499951615916218
105,0.2802646774280382,-9.4019002003416,-0.21798482313973028,0.0002420365714676044,0.0006466532337753893,-0.0006470538064875445
106,0.2052273911248706,-9.370343828699053,-0.21851408171617787,-0.0006493623960106895,6.8409129638913325e-06,0.0001988370808090985
107,0.16911808992299093,-9.39375672548347,-0.38605182821007206,0.001018694743701731,-9.143625630055565e-06,0.0010629125279641165
108,0.17345354898455206,-9.399323495045762,-0.3548620458965518,0.00020297715285510278,-0.0008428340180915456,0.0010640450063024685
109,0.2160011398195553,-9.387719921659652,-0.3158449640445308,-7.057460907116651e-06,-0.0004335633137729456,0.00043316621023818853
110,0.2014855340416103,-9.382855817722136,-0.26426927978938586,0.0004171710763381904,0.000413109426959607,-0.00041449128227956047
111,0.14897509494407832,-9.386236867713116,-0.23769641876073813,0.0010590147839364718,0.0008465325670015853,-0.0008502397763348005
112,0.20674997686708738,-9.374012601475851,-0.3243357491553247,0.0010451648414785979,-4.315496718293708e-06,-1.7101003911570833e-07
113,0.27408251217528357,-9.384992389918438,-0.2604002227347434,0.0010588091203870755,0.0008338979706259027,-0.0008376167520703222
114,0.24839774736824632,-9.36795845867246,-0.24935391702789472,0.00043602982204833717,0.0010591226080329096,-0.0004239377247851632
115,0.22777972150142223,-9.388177946442658,-0.23276635989691258,0.0004229871750614393,0.0006377791152829405,-0.0004170278608191162
116,0.251028992450773,-9.41936527920415,-0.18720596334086959,0.0008441756653912615,-0.00021922623936911924,-0.0010629818721337695
117,0.2924343244955937,-9.336998479932177,-0.12846625308867443,-9.650772196972364e-07,-0.0010626032926782671,-0.0010720719399961215
118,0.24169028766927414,-9.353776942008304,-0.15663250180976923,0.0016683270132944383,-0.00023198145920958803,-0.00020657500005244047
119,0.1654491038785897,-9.37853936297844,-0.20075365061868944,0.000834739174607602,-7.754841194504622e-06,0.0006438410616458622
120,0.12467779949594393,-9.397101517990292,-0.24271925555787294,-4.106270716774921e-06,7.81815248463025e-07,0.0006406217830884814
121,0.14851567585499972,-9.400979005372564,-0.26673290438720176,0.0002078809739152391,-1.8682763240199142e-06,0.00021484993597880144
122,0.2336210323978344,-9.387284325302813,-0.2592383987284285,0.001037290921839679,-8.351604353314772e-06,0.0010710787873670084
123,0.22014022661579932,-9.384371589188472,-0.18618318418223417,0.0002198500641444298,0.0008499674697771968,-0.0006381488130867304
124,0.19869195049777863,-9.367539180973637,-0.22684971931089473,0.0006363047553609718,0.0004162274378360683,-0.00041854598777872225
125,0.1714690673912878,-9.353479675243785,-0.2550849436162917,0.0002028028662435621,-2.063381180369389e-06,1.1916148640890523e-06
126,0.18032446974315597,-9.361770178505745,-0.2589895334698877,-0.0010429319564373414,0.00022731359050139855,-5.078971962042199e-06
127,0.3031215874646252,-9.413752827592392,-0.3351021542755502,-0.0010210591323259624,0.0010698307459288071,3.762246946308208e-06
128,0.25401293783006884,-9.367020592495654,-0.2606838513038907,0.001476175639987671,0.00019343410373594654,0.0008685854687708368
129,0.25225284956245175,-9.354158937778227,-0.2883775024411378,0.0027172756374764513,-2.6413977529185574e-05,0.0010828943097477943
130,0.2381197486670606,-9.376454505055275,-0.3130295236974602,0.0022822826847951638,-2.2489089251360836e-05,0.0006467387039117289
131,0.1816306229363112,-9.398730986207513,-0.2739269086170149,0.0010450620097039,-1.063279490612472e-05,6.140502093113179e-06
132,0.08148257757853493,-9.354114417311152,-0.15356186117121284,0.0010450620097039,-1.063279490612472e-05,6.140502093113179e-06
133,0.07907529083174294,-9.37214225121419,-0.19853399079862885,0.0010450620097039,-1.0632794906124721e-05,6.140502093113179e-06
134,0.19021531964607113,-9.37488620993714,-0.27102111948106755,0.0010492276739787736,-1.142591841762303e-05,-0.0006437473059847044
135,0.2527797881864423,-9.389098022324276,-0.27420098181233105,0.0010519005713735,-1.1934825911769197e-05,-0.0010607476484159
136,0.2482571829589898,-9.390511943264203,-0.21681907841408057,0.0008341011360007652,0.0002142811969888958,-0.001060943038320462
137,0.28016786279670103,-9.314343216164634,-0.19727383212425034,1.710385186045634e-05,0.0010507465487230986,-0.0010497841629414219
138,0.25368770858198914,-9.365518436924747,-0.12001927939159249,3.2539094025865135e-06,0.0001998984850032604,-0.0001997153966457686
139,0.22647086712052056,-9.38203048831653,-0.2078908580486036,-0.0006443653334452824,7.310945813259679e-06,0.000649784809300304
140,0.22164082283292055,-9.383857230440896,-0.3157602241699924,-0.000622848768672857,8.079315527014986e-06,0.00150459963533632
141,0.24277027207810672,-9.376554912508507,-0.31396557804149805,0.00043516059526179073,-2.2253228869385967e-06,0.0019089379796010679
142,0.2760916298889182,-9.35528226823329,-0.09715782532978542,0.0020691161874021114,-4.252284128307473e-06,0.0010791612572525109
143,0.2630922814562415,-9.370395138439319,-0.24471886612389604,0.0012399385548008987,0.0008561598194706104,0.001078413482582966
144,0.16823329903560535,-9.385196317786804,-0.22516107386845471,0.0003920370399238461,-0.00024962102507304824,0.0010680368114585022
145,0.11247328743670923,-9.406193456872323,-0.19613088484097385,0.0008612473949665264,-0.0006287218298910544,0.0006244085775529976
146,0.1292170677791154,-9.418559160319438,-0.22131166862815324,0.0018637234569899828,-1.8962118128781367e-05,1.0950735633259616e-05
147,0.18255390264760132,-9.391682408712619,-0.28979415078784243,0.0010073162749746646,-1.0248757736817738e-05,5.918718351135383e-06
148,0.21047842891038832,-9.341967639911234,-0.2849774839783375,-0.0006662164041439387,6.778298629729591e-06,-3.914507642729522e-06
149,0.2704351639514751,-9.38909182263387,-0.27015639754482146,-0.0010408259943703486,9.826276873353594e-06,-0.000667003821480369
150,0.26271631977669946,-9.407607440332306,-0.24837258136767298,-0.001033829433098139,0.00045631425825023834,-0.0010708388579502698
151,0.2084364101738417,-9.383790646180637,-0.2499583490579539,-0.0005692799592169584,0.0010691613726280097,-0.00059396170594174
152,0.21378134483554934,-9.383593822885242,-0.317632082739301,0.0010036916352005579,0.00103218691656289,0.0010549395702645259
153,0.16852435399585897,-9.358782103929265,-0.208109924104488,-0.0006727399075635149,0.00019628087366434889,0.00018669066824405622
154,0.19929685251110316,-9.373705483795833,-0.2203238083388273,-0.0010535849405752089,1.2255522138781429e-05,0.0013235271083742732
155,0.17715427110735543,-9.397453618420741,-0.26541565241418963,-0.0010514165107490371,0.0004633180186703233,0.0016785450499183783
156,0.15840899623508503,-9.416175634279057,-0.3115394178730216,-0.000569702980660656,0.0010705336161079848,0.0005902538579946751
157,0.3128030430131492,-9.425368776169407,-0.3579077123104184,0.0010361490246015796,0.0010523136772235561,-0.0010291042682792624
158,0.26754605217345856,-9.360607593378296,-0.1954829389843543,0.00019390714563602396,0.0010618697231794551,-0.00017977866011504012
159,0.20760199421868963,-9.367118645671468,-0.16744716856557187,-0.0006397689012506547,0.0010697948737081074,-0.0006668137058045467
160,0.20672685058992069,-9.373682790426022,-0.20708520604016095,-0.000581549225986816,0.0010687419467874043,-0.001065194462583627
161,0.22581293842059247,-9.368629380922638,-0.2605021861240774,0.0004949183599935114,0.001057508776914823,-0.0013019951186736647
162,0.16116623433529717,-9.377590858208857,-0.28013441024642194,0.002055288018271791,0.0010105879148413946,-0.002057261518084509
163,0.23723649553392617,-9.37704500994855,-0.25014607087160656,0.00036163901984389516,0.00017781839807378194,-0.00036198626778753543
164,0.2122062923197539,-9.366231778799072,-0.29020155268880926,-1.0892612090120906e-05,-0.0006691694159685428,0.0006685565192312242
165,0.1900075768068244,-9.371463362999053,-0.25453643815079374,-5.351032394798505e-06,-0.00014735190466372283,0.0006069697314665377
166,0.18830100639262182,-9.386292313726614,-0.17002831559890347,8.04206055204003e-06,0.0008180828648710926,4.0078291589605685e-06
167,0.17726984741020835,-9.384278558810568,-0.17345442133577,3.2875160788618794e-05,-3.414558037349468e-05,2.949261332307718e-08
168,0.27211694523381524,-9.368615385178895,-0.3567010236369331,0.000861267097296335,-0.0008945496900492582,7.726507447909912e-07
169,0.2915823968185436,-9.369575978152552,-0.21894272457013933,0.0010412250834047252,-0.00040094615288558473,4.228337293660469e-06
170,0.330230920135386,-9.371473615360557,-0.1868794736893496,0.0005946463016274554,-6.584800577846074e-06,-0.0004593748561499852
171,0.35303492658472246,-9.375190633171949,-0.26732105267898965,-0.00023824827074418823,1.1915607612070341e-06,-0.001068328214537214
172,0.25984442457842777,-9.389315719831696,-0.2287252826376771,-0.000964641123496085,8.58211381247882e-06,-0.0010725963027380277
173,0.21314306169066466,-9.380582337917783,-0.15817766027117575,0.0007088915556225467,-8.44494255406799e-06,-0.0010627630767441843
174,0.1515133823353213,-9.373409803199594,-0.11228410962021679,0.0010431940371772057,-1.0277141441984342e-05,0.0002975640280567041
175,0.11863831658107929,-9.374862323601494,-0.1465168930077378,0.0010382234480344,-9.330763900480246e-06,0.0010730286526020997
176,0.1317473422920377,-9.372710054847285,-0.21861171521908218,0.000787064248832666,-0.0002599658293451335,0.001070327263295078
177,0.18699006663222542,-9.347682149002651,-0.23646938010521412,-5.6739946346592656e-05,-0.0010212343253198542,0.0009792038418742206
178,0.19228609747516787,-9.358396213934906,-0.2784682521475646,-0.0008741808040418569,-0.0001629152511893268,-0.0007300237585795499
179,0.19296405665090566,-9.381575292946623,-0.22082467040542755,-0.0003649971303246612,1.6916265809123763e-06,-0.001752554179390561
180,0.1866528092182823,-9.375979101789294,-0.18041366470530043,0.0004696241573834068,-0.0004761651537437108,-0.0021343690453535847
181,0.18602948617936366,-9.354299441450499,-0.18459198850607378,0.0010491588671858254,-0.0008200610717719874,-0.0018748274909753458
182,0.21106258383395096,-9.357712429776944,-0.21014198357071207,0.0010517485532673286,-5.674265820655753e-05,-0.001105885587255076
183,0.26209706286593937,-9.396648162484881,-0.20001980866609323,0.0010488548309734824,-0.0009096767363615117,-0.001965103368653645
184,0.23304297986115224,-9.410980718089363,-0.28444857673080787,0.0003781827752280593,-0.00038492607294451946,-0.0014473297059141325
185,0.22874648906488187,-9.402511890859765,-0.27187902617663373,0.0004602526769746878,-0.0004773902763910326,-0.0001188221063184139
186,0.2225043060820272,-9.378805747645856,-0.17434570157690038,0.0010277644105833,-0.0010732818826934,0.0010678163024835999
187,0.13589655058798156,-9.351877833673534,-0.11074726577631085,0.0010282402148991253,-0.0010248804369087706,0.0010680534236043122
188,0.130119062395681,-9.337753819921568,-0.17834928202060737,0.0010366146179508159,-0.00017298985541629755,0.0010722268784698222
189,0.11656230968026167,-9.389365905543157,-0.18992700778232174,-0.00030937855106185735,3.5829401034172653e-06,0.00037495316571749184
190,0.1835046744398332,-9.397453325407053,-0.2035315413870291,-0.0005726639326532962,0.0004820450439251969,-1.0595370396598179e-06
191,0.2581060240236424,-9.361475620783278,-0.22936747487255937,0.0002620891554363062,0.00026873244473057923,2.8537549933793363e-06
192,0.20982296840514786,-9.335028018192073,-0.24995657290351828,0.000973855017494493,-0.002086978823272125,-5.652782084624699e-05
193,0.23341437852371,-9.36570270701833,-0.18580718856653736,0.0001509464836822638,-0.0012268173341092423,-0.0009115092814019078
194,0.25270451159149987,-9.36472631887436,-0.16566006851174697,0.0013674632607656397,-0.0003880560799204616,-0.0017551622452513127
195,0.22462873687015258,-9.370460387440481,-0.16830238342643722,0.0006826401683780899,-0.0004887225061363603,-0.0016515565698251152
196,0.20326926211942348,-9.37892543926893,-0.18423342923947228,-0.0005208499395684429,-0.0005237991057503972,-0.0005355307911405073
197,0.2660664721008241,-9.370289352336789,-0.21006863933723785,0.0010490404872052197,0.001054552192994945,0.0010223889374484107
198,0.20106972993743863,-9.371313850113555,-0.26808305322694104,0.0010545160266114827,0.00105350967522238,0.0001681467162872658
199,0.1580858679898997,-9.355217416800269,-0.2379189229045499,0.0003610330978276985,0.0003655920287292406,0.0007013795989628406
200,0.12250988208555934,-9.367619554730943,-0.2573968269801331,0.0004632932252974109,-0.0004869974124931678,0.001067309910119303
201,0.1082883280562085,-9.383702776107686,-0.26723819183795755,0.0007655881336975694,-0.0007994943831887588,0.000795423038326739
202,0.14072894709988454,-9.355951830014922,-0.16106328476225476,-5.887651683253868e-05,-5.875364986183528e-05,-6.332572866572574e-07
203,0.2399091610677172,-9.34174688075931,-0.2927647930842597,-0.0009040172594435571,-0.0009021307031710905,-9.723325149054552e-06
204,0.31498527950920036,-9.35595007707428,-0.2978594424392587,0.0003338718514344538,-0.00036982831151347175,-0.0014027291109173345
205,0.32891064244319246,-9.361079501588097,-0.2544414342895108,0.0010604002023499324,0.0004744748478466454,-0.001637331584525887
206,0.2725385077022463,-9.366115256403877,-0.21748545771147576,0.0005193108177328322,0.0007824582222526477,-0.00106005773071267
207,0.17039228692660346,-9.392452330407068,-0.22740974724291646,-0.0009767515753245572,8.77830139169966e-06,-0.001009496008572869
208,0.24212943198100675,-9.387525126270566,-0.24447312146130207,-0.00014546077517141277,1.3072909810261972e-06,-0.00015033717441475706
209,0.24276579599460738,-9.381848870841797,-0.18760798990591482,-0.0006948648641187579,7.883911665371547e-06,0.0007007090695068094
210,0.22249746889392036,-9.390612761100119,-0.2291674859566128,-8.46426252570387e-05,1.5251453776340692e-06,0.0005742930251827974
211,0.18408196727669168,-9.402798061154312,-0.29249860770306413,0.0010405308686765218,-0.0002889958697934816,0.0002842486223810328
212,0.12661319160547396,-9.400338486955528,-0.2371285004760206,0.001095024925846824,-0.0009407428653801656,0.00100202669566157
213,0.18053641473361265,-9.40273284832915,-0.29018742053961183,0.0019548013070091854,0.000753474257725739,0.00016105261376637525
214,0.3199040657563366,-9.404253269481464,-0.21630147898548818,0.0007106465198612365,0.000349464515793324,-0.0007025443303216724
215,0.30696926004019087,-9.381973773814511,-0.22374878205859797,0.0004973342608949946,0.00048817007300817243,-0.0010616125331267211
216,0.24939020069332313,-9.36128698835524,-0.25297138812130776,0.0010623596088245,0.0010520162928811,-0.0010555352982974
217,0.3370592128392894,-9.378672978879303,-0.18180995676516293,0.0010612168086528806,0.0009818102746107314,-0.0009853935821880562
218,0.28602473380730103,-9.400635819090777,-0.2487643161093479,0.0010473668661950075,0.00013096221089089937,-0.0001353248158924185
219,0.18562605127312728,-9.386898829589386,-0.17024335403227797,0.0010496263299782983,-1.1501820704835682e-05,-0.0007059418700716228
220,0.18712231606937546,-9.354839926368626,-0.1841838121440676,0.0005464820230915947,-0.001002329085638323,-6.9631630338368e-05
221,0.21046427435309423,-9.339897359019654,-0.2374564724808556,-0.00030490424762472806,-0.0015521201252691663,0.0013446713085477002
222,0.12450523328903548,-9.372524310750327,-0.2012890607106393,-0.0009122874878452441,8.561010431366146e-05,0.002055639088591005
223,0.08647010268972337,-9.383758978005975,-0.20223328095140197,0.0007751002750827627,0.000919430132777028,0.0012146014429171396
224,0.12588718612568084,-9.384728946010343,-0.1676100790356271,0.0017550269859826677,0.0010466069669903479,0.0003666234597830962
225,0.16242833625087505,-9.369380219189388,-0.19687666621376504,0.0011105641107094551,0.0005509981397422554,9.247347011279198e-06
226,0.17307786492687022,-9.350332821614554,-0.24403601118294754,-9.85636247032372e-07,-0.00029000390558463543,-0.00029186802444095125
227,0.16345948337766825,-9.346315059521052,-0.23828374216813708,-7.983188684060455e-05,-0.0010644777505439372,-0.0010725482982937406
228,0.2116052183135063,-9.370150173727644,-0.3147837776674633,-0.0009165982263998879,-0.0010559642223606839,-0.0010774649112906623
229,0.27069834377555707,-9.366898005613322,-0.17224703171344952,-0.0003415591293912637,-0.00034349311182461695,-0.00035118642988750913
230,0.25587115088935225,-9.37365575034734,-0.20348762171831922,1.1467309586683499e-05,0.0005041209458128114,-0.0010115069492403022
231,0.1934241321021545,-9.398135819854456,-0.3136214515517533,2.2255635402541725e-05,0.0010617051002533003,-0.0018351820455054161
232,0.14914250595322415,-9.427551919401186,-0.290618661866363,9.524976737786878e-05,0.000980798722399674,-0.0008986817485930329
233,0.1963253261903478,-9.37051447129835,-0.24079977748532702,0.000912690625073133,0.0001224796482691466,0.0008105458518607377
234,0.15263099271720038,-9.363444108971166,-0.29072458607282237,0.0010264960628426393,-0.0007295148956108742,0.001793232918251276
235,0.1839285268480741,-9.380214647875547,-0.2786044822751016,0.00152636268015858,-0.0005680634175037257,0.0021411403235427977
236,0.22667066621367726,-9.388126937285396,-0.2460324004100251,0.0015005372217665994,0.00028348685157937836,0.001549278747510115
237,0.18513510389708784,-9.364274584413316,-0.2620608275680538,1.100464199416479e-05,0.0010638472381720439,-7.990774531218993e-05
238,0.22942918003806168,-9.371061068312697,-0.15096651338891853,1.6480181400389564e-05,0.0010628047203993989,-0.000934149966473334
239,0.23440330460139844,-9.364615201647807,-0.21529092463880653,0.0007220227700476449,0.000330690691603656,-0.0010610435848677456
240,0.16902573321965375,-9.36820990550692,-0.30099097379990836,0.0010501591716770538,-0.0005252180625051496,-0.0015778123255933544
241,0.13250284535476808,-9.382509206741815,-0.310743195724925,0.001044420548301009,-0.0010764531354787391,-0.0015307178371316815
242,0.21454733395332498,-9.397345109782627,-0.2037090255461405,0.0011216470150791293,-0.0010754695276114536,1.439599259333284e-06
243,0.19865924142449742,-9.376895440986383,-0.19226446209715256,0.0019591990507319785,-0.0010839910497178987,6.360828794291178e-06
244,0.1815362145280365,-9.359779084314566,-0.23129351895708378,0.000651586898800818,-0.0003414061733088005,0.0007326062739979438
245,0.16916428096413602,-9.35798768578984,-0.23667690882029763,-4.544639000611934e-09,0.0010350266690119048,0.001590164413415411
246,0.16345553321974968,-9.367701038628429,-0.2008612439854136,0.000305049799436961,0.0018235645081038786,0.0018401021841944311
247,0.16315551685809307,-9.38212060383859,-0.1533110091187099,0.0011395923729639963,0.000961289991574301,0.0008934477130849714
248,0.1564151139670753,-9.406972419282608,-0.21326939779090828,0.00197972108437768,9.879285243015566e-05,-0.0008142889545678635
249,0.1993195210147673,-9.368572598113897,-0.24896314065222896,0.0006783434079529593,0.0014558763109200692,-0.0017906017702980748
250,0.2406566892735284,-9.354315155684198,-0.24970968220934187,-0.00048457086767397984,0.0016116887482412522,-0.0016080219707828632
251,0.27841321160092436,-9.364546184270042,-0.23537748970572725,-0.00042791932584991863,0.0007596131233293831,-0.0007570292032184085
252,0.31390311196925746,-9.3820939406772,-0.2339990461616105,0.0010447359100872297,-0.00010658113561351598,-9.04245858638803e-05
253,0.2951262753442805,-9.423032260966396,-0.2693755107543848,0.0010418370464418015,-0.0009595142348785981,-0.0009488402618904583
254,0.2813386632365078,-9.40801124115345,-0.19778210082662553,0.00032134450967009806,-0.00033197258809138596,-0.0003289098637797045
255,0.23549221006667848,-9.382078256613049,-0.1787908285002877,-3.3654504814298697e-06,6.407664486367871e-07,0.0005250459692055827
256,0.19317282494127938,-9.370507021259797,-0.19491442224330288,-6.838561669552493e-06,1.3020310056444732e-06,0.001066888150509
257,0.1848202640780029,-9.38485188527724,-0.2031398968842973,9.053628855719969e-05,-9.92933738387368e-05,0.0009672208222682595
258,0.11693477781847118,-9.389776119303514,-0.262640517706499,0.0009244037644710893,-0.0009607400012870477,0.00011372175923859009
259,0.1643705564912997,-9.397571057700322,-0.23315624860592454,0.001780756171302635,0.00039573505991738055,-0.0007289075532998602
260,0.22161977126254084,-9.380480683236728,-0.22582372333787729,0.0005576436075135653,0.0010565401097897384,-0.001587721713258242
261,0.26465757464086853,-9.360243349212915,-0.2217264782985383,-0.0010260456290595629,0.0007571762419087488,-0.001820895037867846
262,0.2898123782296758,-9.364678027245175,-0.2037451564802436,-0.0008356294001834056,7.2695073051788105e-06,-0.0010718382646984854
263,0.3018488119636354,-9.394387249235395,-0.3167380215674584,0.000837903278935226,-9.757549061367998e-06,-0.0010620050387046421
264,0.25887931112533624,-9.374001749404508,-0.2967745745110171,0.0010471251979228828,-1.1025616549239789e-05,-0.0003157387423228091
265,0.18024080405252507,-9.384548191111136,-0.2549870545928583,0.0010450620097039,-1.063279490612472e-05,6.140502093113179e-06
266,0.13680839038485673,-9.405251557774854,-0.199686073196353,0.0010430126807799874,-1.0242612009683394e-05,0.0003258575494905183
267,0.1777860543751387,-9.403696001712264,-0.14503467239733517,0.0009333427651280205,-8.263674310960346e-06,0.0010724124020380834
268,0.20234037919241615,-9.398317992842667,-0.23613866858002208,9.657642556870284e-05,2.4985387231305607e-07,0.0010674957890411617
269,0.1450355134332266,-9.372508187254192,-0.19395487255355698,-1.4177981902493805e-05,-0.0007453043756240689,0.0010632304881189414
270,0.19400835237374964,-9.381327641253522,-0.20762730331947457,-8.607011746883184e-06,-0.0005287573794278281,0.0005282730870125578
271,0.24166587130580014,-9.396425857868179,-0.26374849223256835,0.00031358986059774733,-0.0003257081496331518,2.8132438834637884e-07
272,0.19417883007464914,-9.384120421798029,-0.30740825410289196,0.0010356884892876437,-0.0009641591189705267,1.469128605753731e-06
273,0.2933590440424756,-9.364069209542155,-0.2880074428855067,0.001044062892339254,-0.00011226853747808952,5.642583471218164e-06
274,0.2466775645082366,-9.367728995632069,-0.2160138108574723,0.0010450620097039,-1.063279490612472e-05,6.140502093113179e-06
275,0.21034905295396603,-9.360727167377995,-0.21283128365355927,0.0015723663264350382,-0.0005548693182331335,-0.000533067064636243
276,0.19654882545010896,-9.36428626048146,-0.22587621641190947,0.0017721445741252849,-0.000757532107215034,-0.0013874411343991655
277,0.18355069624222983,-9.39295424929955,-0.2017173920673538,0.0009448422750466575,-0.00012603156390435054,-0.0020153592538293868
278,0.1238499849217869,-9.389589965924559,-0.2292247999773735,9.422085167788181e-05,-0.0009683651205510227,-0.0011694049951585478
279,0.17748615756881891,-9.35078394305833,-0.19845176451176497,0.0007394636211331292,-0.000317961548337026,-0.00030807158543861044
280,0.19593766596433385,-9.357609680720213,-0.2248343339117544,0.0015743020475024582,-1.538979567972798e-05,0.0005526091250774798
281,0.18023563712933935,-9.383190783060611,-0.2718230771726424,0.0014328660371736581,-0.0003431611642944367,0.0010737508946949928
282,0.1661268314992941,-9.39314740626337,-0.28055915805392684,-0.00013101535330747052,-0.0009438950191966402,0.0009435264749690715
283,0.21716131053128562,-9.404313389720057,-0.21298786601919,-0.0009539317504089276,-8.453342729350178e-05,8.854109567645954e-05
284,0.2647706657918047,-9.379956578315895,-0.26613268831177933,-0.00030353752217299434,-0.000755416712245795,-0.0007651225629146589
285,0.24536249520960662,-9.348731725977043,-0.24585167843024722,1.741906414216526e-06,-0.0005197619835967389,-0.0010694281119297275
286,0.23415367999351072,-9.35080358379389,-0.2147584620231481,1.4176835376633614e-06,-0.00033432461764884705,-0.0007341705814770868
287,0.28541733797029756,-9.398947357436661,-0.24057146198356655,0.00010875628137891496,-0.0010651640535498943,-4.511873105587035e-06
288,0.285898795319656,-9.399921363339594,-0.2450719143016012,0.0009455226209382767,-0.0010736775817331485,4.0473989134556905e-07
289,0.1956075395778978,-9.382681778052671,-0.2616683101376719,0.0017878836382839327,-0.001083129786388352,-0.0007579759469825358
290,0.13484746219000154,-9.393389697425624,-0.19510501347066544,0.0010135959641759664,-0.0005264081129885815,-0.001063465067674776
291,0.1485291722262266,-9.392324151462253,-0.14003775446533226,0.0006628369681604527,-6.8046109864192956e-06,-4.8649399764665274e-05
292,0.2235613666274952,-9.359014161929421,-0.19420473959298468,0.0019540828058401826,-0.00014259138130444631,0.0020202488114446915
293,0.19178518156984212,-9.390218734673521,-0.3672215013836033,0.001113637047893459,-0.0009870039373529966,0.0011561098005110676
294,0.1617380540801458,-9.359747158948124,-0.26459942703299266,-0.00045742398522857574,-0.00029501799640115024,-0.0004711850383340753
295,0.16812790160733804,-9.383558806978762,-0.20639206002926178,3.873733971913277e-05,-0.0005538295632837693,-0.0005150420527835027
296,0.18122462974361342,-9.404305998445096,-0.18991156820015045,0.0006987620726030555,-0.0014126431869761562,-0.0003443772058894378
297,0.1904545862900329,-9.378261967007418,-0.17812254132846472,-1.1558457667699986e-05,-0.0018727485573179666,-0.0010760564612995412
298,0.2867460561617092,-9.394752126085862,-0.1866146904093456,5.198211724840313e-06,-0.00016816749707340413,-0.001067705632831689
299,0.203226416194847,-9.395998563020692,-0.20139961669862794,-0.0007404601315796989,0.000774875088170178,-0.0010675585591356494
300,0.2420238981857308,-9.374160648201803,-0.22190928580192143,5.083440076712991e-05,-5.003179759916973e-05,-0.0005088729697827216
301,0.30104937984701785,-9.360483913348846,-0.21951419741537548,0.0010391601791755142,-0.0003854106253720775,0.0003496289557714495
302,0.2729947367504641,-9.3787108624121,-0.19378370284225654,0.0010465305180421668,0.0009224670420062794,0.0012103980101711008
303,0.21281256808066354,-9.41383484838596,-0.24617586257787835,0.001032675434232791,7.161995717632398e-05,0.0020612688818388513
304,0.1713950968502886,-9.388889069913812,-0.23302095396170505,0.00028549961474952194,0.0007708886870856343,0.0013652410277879565
305,0.1790799745288223,-9.367632607962374,-0.2568396363273776,0.0005609616788454455,0.0010582850067225706,-4.792903152602717e-05
306,0.2056335890137054,-9.351733940565913,-0.26910072671106,0.0007205139839262394,0.0010554943395284185,-0.0010575438908552708
307,0.22162371516729404,-9.34211882522012,-0.2292152235943329,1.4624448694336752e-05,0.0007907214462587835,-0.0010630079876023887
308,0.22547537396216105,-9.364039341360883,-0.176597126533784,-2.124357408953171e-06,-0.0009130597167260504,-0.001071354897333329
309,0.2451112425786409,-9.406356485371116,-0.23692973917974874,-9.80558542914921e-07,-0.00028850989191590355,-0.00029036440738758264
310,0.21659354356423532,-9.419762809879712,-0.30942139013197006,-0.0005390129272452586,0.0011329398773486422,-0.0005630169398089174
311,0.18473185662542413,-9.394222807100768,-0.3143865001301458,-0.0010264733307530564,0.0014349865931778418,-0.0007134028199503884
312,0.19387665445954072,-9.354196857255177,-0.2449270654644607,-0.0010468575719689349,1.0974661786121536e-05,0.00027398625505700415
313,0.2521329937319049,-9.408229867090458,-0.2897997892890319,-0.001057813792132962,1.3060676221249664e-05,0.001983272802751291
314,0.2064284459925943,-9.429802851427837,-0.22577165398455795,-0.0002881266899889048,4.493823397103332e-06,0.0013508082209925834
315,0.13791365199734384,-9.414947355449439,-0.21239066347205468,-0.0005605003199577618,6.277922425832407e-06,0.0004946655411871774
316,0.11803030360143903,-9.394268501185872,-0.20713544277853965,-0.001042778177250859,1.019796360544071e-05,-0.0003624425871886643
317,0.1715183406844643,-9.389687475819752,-0.1956391298994514,-0.0008975061753189429,7.899061392265901e-06,-0.0010722018359159884
318,0.20618326983826984,-9.38917355624437,-0.30774764655930714,-6.07398357595736e-05,-6.144667910080273e-07,-0.0010672852229190663
319,0.25766601834044195,-9.373867863381914,-0.26489798326782865,6.838561669552494e-06,-1.3020310056444732e-06,-0.001066888150509
320,0.2983627636177617,-9.389928773836175,-0.2143514775575748,0.0005733442740291716,0.0005640214639860236,-0.001060794993345738
321,0.2890034925237617,-9.404640657775525,-0.20429021300409977,0.00035716640514258784,0.0010591911539269867,-0.0010596788230863986
322,0.22591741664377554,-9.395852801973465,-0.24781136749749919,-0.0005956703822043554,0.0010690557956436566,-0.0009179572269459587
323,0.19510414628483722,-9.389055922688295,-0.3008645708785229,0.0019099387931609659,0.0010445497349432682,-4.896055025600196e-05
324,0.2145347612890159,-9.382670228159908,-0.21344940112292363,0.002083712091994628,0.0002578628622279871,0.0015922075093736175
325,0.18648498969224445,-9.37537244580118,-0.2423211378283021,0.0015030727372013285,-0.0005868970882205923,0.00271719466391934
326,0.12942591208051096,-9.374672281232163,-0.28686264182757837,0.0003063839992155082,-0.001064316753128213,0.0024708291267511303
327,0.0958520143032051,-9.382348232740243,-0.2817761740765719,-0.0006151515192017962,-0.0009063425265200266,0.0007569341663711592
328,0.19743951501782986,-9.384705838999823,-0.3348566240302565,0.0019152586774338447,-8.208555904574128e-05,-0.0009326223655568907
329,0.23112890241453377,-9.374459367048072,-0.2124532395010144,0.0013259446259982549,-1.563946182177171e-05,-0.0018524809694195283
330,0.22194722036037567,-9.35863074905631,-0.1844230525494606,0.0004906859642803123,-7.4584596522134e-06,-0.0021319753365512963
331,0.2635027476155104,-9.36089078711934,-0.19110125372525605,1.1327150511023395e-05,-2.156637884340262e-06,-0.0017671556159314043
332,0.35502943136327947,-9.383172780188522,-0.19045426515389274,0.0001588315525626911,0.00015155157741777024,-0.0009106110340553485
333,0.2616267055877535,-9.374475410861093,-0.254995410053084,0.000998496755767433,0.0009959711484995738,-4.7278745031814336e-05
334,0.2202801484207545,-9.395708637146317,-0.18699060449603355,0.0002677764569464585,0.0002672176453206913,2.8801193018757683e-06
335,0.15970268928490744,-9.390184490977743,-0.18394453967663016,0.0005716432489282774,-5.816081121394236e-06,3.3588213273130578e-06
336,0.1448938440910722,-9.372676413000455,-0.19031937354011003,0.0010390479735023345,-0.0003800950560532522,0.00037526437028766944
337,0.19105253264425867,-9.371765694618025,-0.18653932745399882,0.0008768306494205152,-0.0007561886834288198,0.000910161761976162
338,0.1819048430064495,-9.435594453049356,-0.2823888361781437,6.228865537075755e-05,0.0009550634899667829,5.934983754907759e-05
339,0.1745604415065966,-9.420045006629111,-0.20421187251171175,0.0007939816155048692,0.0010559793096568037,9.816117154146182e-06
340,0.23585003102056668,-9.398378809475773,-0.21744231793278918,0.0010535282514456408,0.00046697773375020245,-0.0005787566821676762
341,0.2744531354104083,-9.373648267269823,-0.24863018582482166,0.0010519005713735,-1.1934825911769197e-05,-0.0010607476484159
342,0.2495065764688748,-9.352337718572638,-0.24847600589992125,0.0008948526371450408,0.00015118202985568463,-0.0010608885375822472
343,0.24758074707144126,-9.360621409544791,-0.27296594251336126,6.64607006373719e-05,0.0010115861395313705,-0.0010616316957136587
344,0.2560712495536489,-9.418390778330746,-0.29163799010124625,0.0015792211589383993,0.0002462727832458347,-0.00025280261432043144
345,0.2049395774945278,-9.39811188278278,-0.26416439871785174,0.0026757086328247845,0.0005621077763291878,1.8574579407934702e-05
346,0.14378520461637564,-9.370552188114774,-0.2077748887476768,0.0020248929528367066,0.00028939348839637763,0.000391663589926469
347,0.11269130265050173,-9.375945412626448,-0.1602836753484847,-0.00017845531341429077,-0.001061200724637967,0.0008951154656645011
348,0.11846879084280229,-9.367171562960715,-0.19434479909577318,-0.0010097461135673876,-0.0010537297142273582,3.5956631506477285e-05
349,0.10968800847367002,-9.368536894725175,-0.27470322400019825,-0.0010476077796571443,-0.0002483370006039716,-7.409208164715034e-06
350,0.2126514896987734,-9.394142276940062,-0.3110565971336636,0.00012555507513649486,0.0005917026508945005,3.608229028632504e-06
351,0.26706930182699906,-9.383758619795735,-0.24703875722261165,0.0006825767611538539,0.0006753316654729886,-0.0007568929288177789
352,0.21837247847712352,-9.333067125270876,-0.12422000057873522,1.2597563119367476e-05,-2.3985186607307607e-06,-0.0019653534568800633
353,0.2414824312463258,-9.351075282193671,-0.16369918044117035,7.116882361587896e-06,-1.3550219982030346e-06,-0.0011103091303469245
354,0.24905411489456292,-9.393142722523484,-0.23776140582750732,1.64108186653382e-06,-3.1245451547821806e-07,-0.0002560261765592439
355,0.20353486223746164,-9.399008623059462,-0.3533806859930459,-0.0005859778848518562,5.96192628887149e-06,-3.4430477761509506e-06
356,0.18063259167984902,-9.385276970262641,-0.3927449977725151,-0.0006635999308435453,0.00039129881631287,-2.0376160187071e-06
357,0.22273968232978145,-9.368500602957889,-0.31501468976192903,0.0001781503522600289,0.0008897795822774077,5.362787560775061e-06
358,0.30555034641942813,-9.356744219587512,-0.2225179460204928,0.0010065422887677107,2.937547260162428e-05,6.105945692242975e-06
359,0.23686795156096382,-9.390164513534117,-0.2738900424322459,-0.0005638583468127598,-0.0008056816328327554,0.0008073056010896411
360,0.16215457447565912,-9.395236834343837,-0.19065218400237208,-0.00046689770098518453,-0.0004577970298978597,0.001061939899186751
361,0.12793587962738934,-9.39212985890924,-0.16431504211994796,-0.0003754796220402931,0.000780909815434765,0.00028999568520604005
362,0.13882907873088765,-9.390126247499762,-0.23926621015084953,-0.0008460580695455316,0.0019602102376254683,-0.0010624462479912884
363,0.13979199342960452,-9.371125150221346,-0.16977691737538095,-1.7673996327035677e-05,0.0010990062306900203,-0.0010617070085967887
364,0.21315260636118327,-9.379132250022732,-0.23873745660679127,0.000807946049168787,-0.0005783577118541477,-0.0018839085061732787
365,0.3333885474509898,-9.380698513037537,-0.21062476979519973,0.00045125631124958327,-0.0010704146625739321,-0.0015312334551777535
366,0.3668284578640693,-9.38414070264485,-0.19208409254323708,-0.0003832851543104337,-0.00027724699683504293,-0.0006776356995350086
367,0.29820396146134076,-9.391188723510679,-0.21840879199706376,-0.0012113226130520535,0.001076381915807059,-1.9665088512434417e-06
368,0.3078331084485089,-9.389719732485052,-0.18439061331297568,-0.002048874648704903,0.0010849034379135042,-6.887738386201335e-06
369,0.23732972870071203,-9.392999609871875,-0.22638482593151335,0.0003271264972436592,0.00024107221865958688,3.105202283136378e-06
370,0.18461079613090436,-9.377689249294,-0.20578965193420623,0.0010450620097039,-1.063279490612472e-05,6.140502093113179e-06
371,0.14612761863193774,-9.382186007793207,-0.20610600366292173,0.00026430816588868375,-0.0003981826858680643,-3.615038951743754e-07
372,0.1243015699914426,-9.401054299096133,-0.2338197467048017,-0.0006952460041441495,-0.0010569838773243476,-9.235973370719328e-06
373,0.13874529047219472,-9.357196188680806,-0.16242230994801274,0.0009782866749745648,-0.0010740109336908558,5.972526231457591e-07
374,0.1387660825035028,-9.376435613273763,-0.19959917791054166,0.0018654468904412318,0.0005626208568251479,-0.0008117461859177245
375,0.22187309717171533,-9.410390494950985,-0.26603954568230437,0.0003008937009870529,0.0004485396160592625,-0.001062968283205796
376,0.26978578367529454,-9.40459298950751,-0.25707465993984274,-0.0006487718340914815,5.830668552757038e-06,-0.0006705211371399402
377,0.24411670787624373,-9.364144043341087,-0.1845195635085469,5.668661193186543e-07,-0.00018749988006706487,-0.0003762088405135927
378,0.23159881679292585,-9.3807181080334,-0.23049308082754472,3.148683231677709e-06,-0.0010414764759946393,-0.002089668843073299
379,0.30833860960149373,-9.408572479102677,-0.29200974068660696,-0.0008196017963218079,-0.001056268152371389,-0.00048567510956381855
380,0.23246048760537513,-9.396453340327557,-0.26631056825756727,-0.0010594727564592257,-0.0010525659364275242,0.0006051557112394291
381,0.19775280493028397,-9.374468594904233,-0.24349361506494707,-0.00027115858960090865,-0.0010600662249318545,0.001060184181779426
382,0.23996886545922486,-9.365498304971746,-0.2633509760530963,0.0008442086851639692,-0.0006899955731380285,0.0010685841526571966
383,0.15812111606829998,-9.379689888731342,-0.2892854693586343,2.4191151707987104e-05,0.0010222991180301392,0.001072014449391215
384,0.06782453249156434,-9.385338579091624,-0.20791836779211414,0.0008058884646893917,0.0002274501595836446,0.001906419996754332
385,0.10104446453272908,-9.388549887070907,-0.21104272933171203,0.001035357357381637,-8.785073289615355e-06,0.0015201691923065405
386,0.18601938814009772,-9.370467686867244,-0.21446886975282053,0.0010474427796994612,0.00039607383268389047,0.0002599773473719461
387,0.2617058965703497,-9.344420946222808,-0.2041001325435161,0.000867650265420342,0.0006652809786409565,-0.0010585610580799794
388,0.28722313608634387,-9.367299132660268,-0.2680832015843967,1.413511975777272e-05,-0.0010299866561606235,-0.0010718245808078416
389,0.25475305421849836,-9.377341586155083,-0.14441653984731373,0.0008239388832116542,-0.00023942079024400577,-0.0010631995325943928
390,0.1837822040237475,-9.376110963324672,-0.1772094686795102,0.00104790196136339,-1.1173508771677067e-05,-0.0004369220774252455
391,0.18919410425735061,-9.374734259960395,-0.22135945725474193,0.0010490929320353744,0.00039941491210238945,8.149346462408899e-06
392,0.26220421447016373,-9.385526987611623,-0.22652477917509076,0.0010535747592229348,0.0008553311541787336,1.0382903095238723e-05
393,0.23764988965288628,-9.422572254399315,-0.27342170163367424,0.001045200356171244,3.4405726862568754e-06,6.20944822977429e-06
394,0.15627513313023558,-9.361916746108102,-0.2315594033610463,0.0010396769270776182,-9.607499692564282e-06,0.0008462705062014042
395,0.15705479270448214,-9.372560390995453,-0.1810030070473678,0.0010422455083973642,-1.0096545880996614e-05,0.00044554457784166897
396,0.16191560782992595,-9.38876313319427,-0.20445265231842719,0.0006346437353638491,-0.0004201945843044431,1.7261722926194072e-06
397,0.157634198383302,-9.378538255184122,-0.2635899080991365,0.00039109888588011524,-0.0006649587287627605,-0.00020310038258336175
398,0.21252033621016075,-9.35413650194564,-0.17612917383728371,0.0020876416066018914,0.0010207448661599143,-0.0010391578514816792
399,0.2607485562275009,-9.363906975394787,-0.24671588233066558,0.0012645564863020885,-0.0006331405375150418,-0.0010624948020651075
400,0.2733226201081034,-9.411923108849507,-0.20893589270520008,0.0010333505124905866,-0.0010743454510628123,0.00019632515852616438
401,0.2664824520729182,-9.415793321152313,-0.21963082396493022,0.0010345495522754438,-0.000656448044691152,0.0006513642453775531
402,0.24173042045240195,-9.371643130885474,-0.28494081884272393,0.0008454405531532102,0.0001967027838535638,5.961419822857717e-06
403,0.18299262383067938,-9.364867784899436,-0.23539799485372984,1.7048616645579376e-05,0.001057106893529294,5.218261691389848e-06
404,0.2899915759897571,-9.388896677541757,-0.2667387265456753,-1.1588520865926948e-05,-0.0006252428132760626,0.0008443788488944704
405,0.2076234480429302,-9.390149213699337,-0.2857082667634391,0.000604516875540334,-0.001068975626994811,0.0010653294142887386
406,0.21398896975453535,-9.386935096768212,-0.3076530631431198,0.0010387473867760478,-0.00023181107335995484,0.0006497860813913148
407,0.31275819846538794,-9.384717416650172,-0.31538354470937563,0.0008502979127833053,0.0010554063296486585,1.0147016505671343e-05
408,0.20876341100397114,-9.3745666493758,-0.2558241355593728,1.353157322393225e-05,0.0010639198578319125,5.2304035087387385e-06
409,0.2558708092316469,-9.376434355128989,-0.24764294883318977,2.1153845045782387e-06,0.00021518860802040236,1.0542198289854188e-06
410,0.2553164422496695,-9.375106419613452,-0.23290879739998038,4.092411421734046e-06,-7.791765017891539e-07,-0.0006384595860698669
411,0.2737442272462741,-9.37192772068493,-0.2223997937518563,-6.521163652278206e-08,-0.0004254238039085635,-0.0006431548335704965
412,0.29294614170637934,-9.362179895685276,-0.22206072319557363,0.00020180387254493365,-0.0008537548370110605,-0.0002161117406440226
413,0.20776877519299147,-9.334985634259306,-0.23259977794238915,0.0010513929944028992,-1.0887140231498425e-05,-0.0010597019546363742
414,0.18899193856801366,-9.344743885213761,-0.19902976207474118,0.00022043224542363574,0.0017042924837416228,0.000652216703156916
415,0.20314823775913432,-9.32810957351304,-0.1847508421405565,1.1904401009298026e-05,0.0014884679686346818,0.00043205960059943704
416,0.18582461470555178,-9.339529396053587,-0.2350631018368048,3.495948337999714e-06,0.0006361853784395629,0.0004325862969732392
417,0.1213505501701154,-9.375204952489783,-0.3027328919816905,-3.32312921923445e-06,0.000217266747291635,0.0008511212377490356
418,0.04219670233814712,-9.375385194788425,-0.25195727117031436,1.048583243570635e-05,0.0010639460171498185,1.0320483222670765e-06
419,0.11922987823549284,-9.399685221751685,-0.16083233095529745,1.5961371841931126e-05,0.0010629034993771735,-0.0008532101728388771
420,0.19153151496120882,-9.375373672233959,-0.15726117868422357,0.0006393929891414881,0.00041300243283295805,-0.0004153374057897385
421,0.23398832360726854,-9.367998325420547,-0.24576451530183108,0.0010506171962773188,-1.1690477136720045e-05,-0.0008605275218895837
422,0.25289004086532024,-9.378259613457118,-0.34715024745232037,0.0010573309596149678,-1.2968747108177751e-05,-0.0019079458090022578
423,0.28223221966782946,-9.348608002399763,-0.3066979131711149,0.0010518503260359233,-1.1925259428263648e-05,-0.0010529088428499322
424,0.20471758642112528,-9.381309410952857,-0.20796792901413416,0.0010463747866296606,-1.088274165566318e-05,-0.0001986666216887316
425,0.20333646765820118,-9.382469499487806,-0.24862149247804344,0.00040891289911938907,-4.160410531081528e-06,2.4026617460288455e-06
426,0.17008263319770964,-9.375469504871512,-0.2203626444347161,0.00043213542094979444,0.00043123361539195625,4.647912595058981e-06
427,0.10540152454096065,-9.372205629698122,-0.1573690416768948,0.000828693799700216,0.0006090471292920169,0.00045636959837665344
428,0.10269421960847201,-9.374630546070833,-0.29713982182741516,-1.2767770113034663e-05,-0.001049994759980485,0.002129688067707541
429,0.11328628129435704,-9.376083944017777,-0.22908412740227826,0.0008323729724979952,-0.00020661770667123878,0.0021387781355699737
430,0.16215954409101943,-9.368568538266892,-0.20889916284407506,0.00040223831952765886,0.0006489792537177775,0.0014866435749363092
431,0.15381255437439073,-9.378690781381442,-0.23509056827068692,0.00043356291980853296,0.0006210908828890331,0.0006320360014914949
432,0.1240271201273207,-9.392874445321644,-0.29827885857900316,0.0008226090765266773,-0.00023609339055593296,-0.000452100939875199
433,0.21299733584020233,-9.366500005762106,-0.3784871883609188,3.127269812383392e-06,-0.001066537889836855,-0.0021248203801316153
434,0.2698093030644879,-9.394225945887532,-0.29284559481863137,-2.353410945395849e-06,-0.0010654943931743023,-0.001269776053598529
435,0.21927764486471377,-9.39207012721096,-0.23726899855376127,-1.3917931504503739e-06,-0.00040950751416845557,-0.00041213979140425876
436,0.20054418659308731,-9.383918609520652,-0.2479851078923262,0.00043652782889672765,0.0004389995448606977,0.000448831949097679
437,0.23498577799319473,-9.381173089094194,-0.2860715125931811,0.0008211719388693166,0.0008258215938422821,0.0008443177673197787
438,0.25154211919625846,-9.384804641149916,-0.2548690559646607,2.484620275342751e-07,3.756562444706003e-05,1.8998240274490852e-05
439,0.1908784931770987,-9.355620105384647,-0.19389482972059646,1.1529592013850832e-05,0.0017431892024643279,0.0008815912899035339
440,0.21135716878279592,-9.382116189788617,-0.21864459482424048,7.6090435819654015e-06,0.001470992319732715,0.0010740882372565605
441,0.19331744918418392,-9.417852401432954,-0.21556764492835995,4.971081461262949e-06,0.0006176282152594293,0.0001743835590408877
442,0.16798702777676533,-9.414652950563475,-0.19289846543868103,4.5336191969545035e-06,-0.0002357735236217522,-0.0010680368381608216
443,0.270246748668824,-9.329174012579582,-0.24177247077226172,1.846886263591983e-05,-0.0010430387367196697,-0.0010493885446881369
444,0.29046795734187725,-9.364723186085842,-0.1600901865763196,0.0008581340658406679,-0.00019861916563786928,-0.00018605625566458394
445,0.24069986199414684,-9.380253656611572,-0.24922022411816905,0.0010515720864293831,0.0006516082046016317,9.384854104451952e-06
446,0.22482675356299642,-9.377651868322383,-0.28129436515895945,0.001055521047155,0.0010533183238868,1.1352852211556028e-05
447,0.23622501390064587,-9.375440805060915,-0.2681317165542876,0.0010508394313016914,0.0005770784740728802,9.019729200791114e-06
448,0.19773018151371166,-9.402544406233998,-0.37471836006123477,0.0010092624097058822,-0.0010482640967185667,9.054187196942148e-07
449,0.28198521765144197,-9.422941355573744,-0.2470806873816379,0.00018087047319808425,-0.0001878599870427181,1.6226058822622748e-07
450,0.2175874100237536,-9.404609683043251,-0.22746946083464736,0.0006540674054891261,-6.654690834391202e-06,3.843123408132532e-06
451,0.17989245913686772,-9.390460794685486,-0.22708096588098353,0.0010361352051223105,-0.0009187167143201142,1.6917532349104544e-06
452,0.19069849184779702,-9.388233698320668,-0.23455354769204292,0.0007890369539084211,-0.001895122520498526,-4.4988900801956915e-06
453,0.17636005262610915,-9.3828856806321,-0.28024443109898445,-1.0076963247547916e-05,-0.0010640238639816463,-6.481997815795846e-05
454,0.2582078020170391,-9.377463491372898,-0.16370544436105194,8.792569164567754e-07,-0.0010661098784167638,-0.0017741065258523058
455,0.2863229965556384,-9.3942910932108,-0.2252251430403879,0.0006674573791762598,-0.0004037096914053428,-0.002132846144308952
456,0.2674851240454552,-9.374034998233512,-0.21794436210958185,0.0010602995241485076,0.00044479961981762426,-0.0016672254347572554
457,0.23437641790631514,-9.340151355375454,-0.17822453728640358,0.0010623596088245,0.0010520162928811,-0.0010555352982974
458,0.23681845536261045,-9.364566129851601,-0.3014269398121795,0.0010624734233433872,0.0010854446858604206,-0.0010219233989427826
459,0.2873714770452374,-9.390348142072725,-0.2573231460277343,0.0010653801502781117,0.001939177682385074,-0.00016350380417930595
460,0.24357036072422145,-9.379243949404868,-0.14212849086597792,0.00039151362189479436,0.000777991378663481,6.085816090124087e-06
461,0.20990449695906682,-9.368605634662394,-0.13426656855766492,-0.0004634026603674709,-0.00045538825916852387,0.0009203111401629418
462,0.2063343632428907,-9.370790340179251,-0.21095352250691063,-0.0008205104306393966,-0.000804441982139898,0.001876095588513042
463,0.19819628243586437,-9.382807029062944,-0.2308827031255678,2.9984847669279265e-05,8.416473422688704e-07,0.0009928880484039821
464,0.07446174365075281,-9.391184649770976,-0.19476838436348046,0.0008777022660410943,-9.756916386205992e-06,-0.0007106797809214758
465,0.20472194179018757,-9.388528288886892,-0.22719029438702396,0.0017129928311142217,-1.7876962119171438e-05,-0.0003781345597522565
466,0.279319996714344,-9.372745482571464,-0.19678149996599498,0.0016387228303216365,0.00044814778702259486,1.187879925053628e-05
467,0.27626306043782545,-9.35460297159222,-0.16235409935876738,0.001055521047155,0.0010533183238868,1.1352852211556028e-05
468,0.32672005411082866,-9.352548692034553,-0.2704329821120361,0.001055782345668792,0.0010532685738394738,-2.941248728279995e-05
469,0.3368306584473541,-9.378361890413041,-0.23782027917463583,0.0010612578850749742,0.001052226056066829,-0.0008836547084438495
470,0.28617696638217016,-9.396438701320523,-0.2315890846893127,0.0010556702048288074,0.0003715331319192721,-0.0010588690195765327
471,0.19056695511690844,-9.392230262833763,-0.2031700966586227,0.001045878984586777,-1.0788343204096479e-05,-0.0001213162444962556
472,0.12269831423109658,-9.377344547250347,-0.19105575227452334,0.0007847634285779054,-6.454738643126442e-06,0.0013288602336176923
473,0.1746821557679169,-9.376760790242027,-0.26901832684022675,3.0552003489122506e-05,4.640983200912307e-05,0.0020907852362249024
474,0.20886562757236407,-9.384042259264106,-0.2990324770734382,0.0008811734268578829,0.0008887433886558151,0.001244830977554063
475,0.1243487421580789,-9.371070327522501,-0.20850536692626717,-0.0009790322525317636,0.00039184417878553707,0.0017497047661954963
476,0.12518083544504766,-9.368972127274475,-0.19212494273327352,-0.0016315578425713361,1.7425036838083145e-05,0.0007046512796075674
477,0.20076219029013864,-9.375914551346565,-0.22604611234233674,-0.0005274347278254927,4.133836204408141e-06,-0.001070027396048469
478,0.23039469356686929,-9.37399138060495,-0.1844197442363608,0.0010992066524873614,3.559418809238559e-05,-0.0010121533929785059
479,0.15143568827208986,-9.364795684780821,-0.14088123719247095,0.0019396575517856391,0.0008800057652510703,-0.00014881648741688267
480,0.25439206207581777,-9.366473095858318,-0.12243460513123679,0.0007497912795655484,0.001056428916258618,9.55646667617347e-06
481,0.30719208503190054,-9.385780361678425,-0.18840320149723866,0.0004683797256721456,0.00010775795044387111,3.296776637210018e-06
482,0.2740871312236097,-9.401002834991518,-0.28407003567144234,0.001037194838357924,-0.000810924962756255,2.2198304549130605e-06
483,0.21794412695190407,-9.381469467862404,-0.31120915484319384,0.000994379660763201,-1.0117136489070802e-05,5.842706300265985e-06
484,0.21698121225318726,-9.3756239473897,-0.39379642128755493,0.00015761332120387377,-1.6036083057968748e-06,9.260933033333809e-07
485,0.20859366688425338,-9.363061982757962,-0.2457106386288228,-1.1241167073314166e-05,-0.0006905823087261852,0.0006899497997773779
486,0.17978950057542023,-9.374725469618117,-0.21266169794700393,-1.2585233162108707e-05,-0.0005832811672532409,0.0010640242479772982
487,0.16773031366515678,-9.392796534810632,-0.27298806770264716,0.0002521833081136804,-0.0005365622373832932,0.0007977652737946051
488,0.22012666336361394,-9.380210534933079,-0.24883119498548542,0.0010262864515826675,-0.0020291913724981704,-0.00016999760596370203
489,0.21579354721938826,-9.355367258555958,-0.1928710595961783,0.0010594748805454767,-0.00032773884446121596,-0.002725175546351392
490,0.21538875103068617,-9.361924103885595,-0.18457256601844763,0.00038521268730456164,0.0006883337747556612,-0.0024991364355707556
491,0.23661692764948988,-9.365052171273733,-0.21601332569095044,0.0004876232530314622,0.0005746851234012906,-0.0011599901354966177
492,0.27322974064705147,-9.36542059721435,-0.22882666962691006,0.0007771751001150745,-7.5933596999911535e-06,0.00027628049167095086
493,0.3017012119450666,-9.37507026726802,-0.1657305988536236,5.118924317598598e-05,-5.832597671798168e-05,0.0009488238119049515
494,0.23381572568553893,-9.357583826459951,-0.25733608736026625,0.0008905322584960063,-0.0009208151219388844,-0.0007589174722857263
495,0.13986723834121595,-9.344113430936051,-0.2376874623595981,0.0010324593990798916,-0.0010741757871266893,0.00033534830177913333
496,0.10071549090721749,-9.338434699306983,-0.23253244348491983,0.0005593079381438479,-9.50887367239194e-05,0.0010697759492495251
497,0.10666404392629653,-9.35615999360352,-0.2566536038205196,4.45105910349319e-06,0.0007899767973376159,0.0005200306176644666
498,0.12122109724238135,-9.406130631759211,-0.27461178936647423,5.82173297048136e-06,-6.376920243045249e-05,-0.001004478193183704
499,0.25265895361722757,-9.37972109324658,-0.21221283272481722,-8.028209487388892e-06,-0.0009146172661503616,-0.00015440942688797884
500,0.20427577999520663,-9.414104088128418,-0.22955975149797417,0.0006908640723412504,-0.0003694562114687185,-0.000702030350114309
501,0.17746858397963555,-9.406983340471811,-0.2139864624324661,0.0010550550260350466,-1.253541971697402e-05,-0.0015528760318909078
502,0.20093411919767312,-9.381031401466245,-0.1999557667148888,0.0007836427466536742,-1.0116472276592133e-05,-0.0018509606965861633
503,0.23648227978509284,-9.397667198034876,-0.26100017051128604,7.143009554970298e-05,-1.8825306598823116e-06,-0.0010001312623842496
504,0.2653697207465968,-9.398132110791538,-0.2750228984328325,0.000902720895702785,-9.35354107055559e-06,-0.00014097242822614812
505,0.2739072500124318,-9.386095915413199,-0.28783629220766743,0.0003630527857260003,0.0007015811486665817,-0.0007024465634917685
506,0.24892761809952485,-9.373759458228985,-0.2780365697977206,1.4122653256840882e-05,0.0010632535830240324,-0.0005663505720418982
507,0.20127383092451487,-9.368398208111913,-0.25201287266427547,7.68784407573691e-06,0.0007820500063961472,3.831302370443441e-06
508,0.16244379561071925,-9.375424814477926,-0.22882130612107454,-4.489013370984131e-07,8.546877071822082e-08,7.003336965290297e-05
509,0.2548836066875342,-9.400687338166994,-0.23778127724694653,-5.924440743323188e-06,1.127986543318686e-06,0.000924275590814093
510,0.20092927738217828,-9.399682222970577,-0.21133431661132243,-9.253470817713634e-06,-0.0007092370615931114,0.0003517817769352094
511,0.1811953595460653,-9.38283457521024,-0.22170243579698,-5.567344222284774e-06,-0.0005663410368049144,-2.7745332639137414e-06
512,0.2054215419250759,-9.376909728900966,-0.2260309911175888,0.0002841524442332799,-3.5529146985974937e-06,-0.0005712964427654786
513,0.22816698831238247,-9.404348936844732,-0.1670937935351062,0.0009860884561887766,-1.241363525761928e-05,-0.0020553006396322095
514,0.26235046011682545,-9.397501936949507,-0.2216775765483611,0.00014384143587175028,-2.8566104118187417e-06,-0.001205172926096045
515,0.257832319414916,-9.364576571670076,-0.2616703968528156,-0.0006868042174890816,0.0007191457082022805,-0.0010675104239147503
516,0.26449322035924666,-9.357530572648297,-0.21922867139115448,-0.0005435545137394205,0.0005676273724263752,-0.0005647367870328262
517,0.27818553989410694,-9.375774245705452,-0.16406979243477232,-1.858824306252578e-06,3.539116846108389e-07,0.00028999630654040194
518,0.3023013541530845,-9.396413349479726,-0.19683577354637255,0.00014526430761354497,-3.3486620419250854e-07,0.0009904285754938718
519,0.5492889743739494,-9.369914707660328,-0.2731017210656583,0.0018250582222320265,-1.8412434266517616e-05,0.0001460241968645724
520,0.9579528937251975,-9.351901965963197,-0.2571781098237393,0.0006705772336486248,0.0007135393717103818,0.0028839812557236158
521,1.2266851151005764,-9.354675132384877,-0.16296159691974763,-3.962480332359778e-05,0.0010734868540427252,0.007818822702182624
522,1.5446777731405366,-9.36431052286334,-0.18900280470354316,0.00020691633051715355,0.0013720566692582434,0.01468448877840446
523,2.1464607921067373,-9.365455173729815,-0.4744299301154477,0.0008304941678627698,0.001986854787133517,0.024127540549885793
524,2.426187512083974,-9.400804236059631,-0.28127412616370356,-0.00013804087537762545,0.00031268502274637953,0.042057370279666335
525,3.0390575889735083,-9.359243240228308,-0.1897059662446514,0.00029081207640993415,7.219523582991753e-05,0.06506217515127949
526,3.6200681885129606,-9.308977987218363,-0.31284892427159927,0.0009568052131382846,0.0006057878995169004,0.09256513409766207
527,4.370344329520751,-9.33587630737588,-0.5594163669772421,0.00158396703847617,0.0008966599053671909,0.12574882567308704
528,5.474847508843498,-9.438812785193397,-0.7417723196181242,0.00215173718377864,8.587699811577684e-05,0.16640933242437347
529,5.853272985439209,-8.980076514926349,-0.49435313050486784,0.002640563415475549,-0.0007098753474198808,0.2193859269804518
530,6.995503908762194,-8.9672591627678,-0.24570842500400808,0.004508764418588759,-0.0007860932954831192,0.2803660619202669
531,7.5347367391355125,-8.98730606978399,-0.3017619476158012,0.006073644494919136,-0.0007222450577550558,0.349431576966118
532,7.979198014488317,-9.104267764481108,-0.42153584777305875,0.007244658992079433,-0.0003428400116798353,0.4283445479108667
533,8.704659964416097,-9.366951861401741,-0.33691333233598575,0.008347211986667427,0.0006907873109956264,0.5189894901195327
534,5.5800017670800095,-8.865121179549359,-0.6875603474994121,0.009358369925557065,0.002507644843153873,0.6249593769698881
535,2.8037905931746243,-8.852991354512719,-0.49233022459883524,0.010381473898476089,0.002133153811162625,0.7258084221887734
536,-0.41306568544633115,-8.868600589908677,-0.45590369608774906,0.00994048604443647,-0.00015991281802048307,0.8149035420587636
537,-3.352131680580689,-8.905509666276926,-0.4681024135933615,0.008414982819462217,-0.0019667493170040266,0.8728436353357072
538,-5.031341899663025,-9.022900598909912,-0.3476604033927656,0.006770232312081877,-0.00145321661840272,0.8830377265818034
539,-5.2932546977139685,-8.946613958818462,-0.8532221012670598,0.006072650076366823,-0.0040316581989941645,0.857386606126401
540,-5.1164953499366925,-9.076247082965237,-0.44208377410995514,0.008531395607191336,0.0013706910185072993,0.8002402621377527
541,-3.8056207497344676,-9.125440247924121,0.06738542916315984,0.01099579772318002,0.0023647953065101916,0.7295450842464614
542,-2.2710325571276218,-9.104659369960753,0.2865277781917097,0.012220001541837942,0.000941142827930128,0.656271755805011
543,-1.4970304384706177,-9.08306489170767,0.0283903350531177,0.011528378911767976,0.0017249278281569213,0.5910701630568242
544,-0.3540506910937502,-9.010566789745024,-0.40873266295324406,0.008446322172088988,0.0025626703315740403,0.5508956597028601
545,1.442947397531961,-9.107009658290394,-0.27635352794868473,0.005203268891532945,0.0019565111704571555,0.5335738986971892
546,2.419788789868399,-9.075101657406886,-0.4919350927794176,0.0033439825444294647,0.0016554042349818895,0.5414038417572862
547,2.682232315834953,-9.007350738267558,-0.7537220916328143,0.0026428020566305298,0.0013815013863969472,0.5674407391666632
548,2.555263090428784,-9.016442237289422,-0.6032357789477699,0.0027949711631115523,0.0005691808872833832,0.6031071651004186
549,1.2360699531869008,-8.794814317448274,-0.34821550555345515,0.005833221168126435,-0.00025941961891329544,0.6501172143531475
550,-0.5286762627061213,-9.303267448833365,-0.2601254383933643,0.010389726998563593,0.00036498038639260204,0.6889917655580192
551,-1.1891367588917579,-9.116908158256201,0.022173739427861466,0.013157934229421152,0.0017516318734868903,0.7197428911139357
552,-1.0876442360672085,-8.836006527034865,0.26843531257004505,0.013787379224753114,0.0022121606109830193,0.7386610640436445
553,-1.1670276014780632,-9.205248279538575,0.20472240190272856,0.01269906045965319,0.0005243206995887788,0.7437009779640787
554,-3.0447112639758656,-9.297800473360947,0.01673718792824697,0.010182960991746478,-0.0011568057905411192,0.7419685907489256
555,-3.905613314460677,-8.927143467246534,-0.4267392194347277,0.007800403668869814,0.00011350038764053463,0.7238670247806197
556,-3.350718426977845,-8.953834990575317,-0.4157221121057675,0.005461189654503307,0.0007507204449455463,0.6980281944110664
557,-1.78247892027526,-9.160875990513867,-0.3672815417242342,0.004059399655274179,0.00041521916678299837,0.6708821256066588
558,-0.20058693622629636,-9.175340967824145,-0.6016772055468226,0.004720870457924139,-0.0003635563371672545,0.64802352920965
559,-1.415303828657567,-9.035480165746801,0.24506471565777443,0.009004073267884457,-0.00042490218636322266,0.632667746383411
560,-1.746560395459469,-8.979428530631022,-0.11361196618267055,0.01031274985615669,0.0010468492386039772,0.6262827330199643
561,-0.6383666626719832,-8.872540166075616,-0.15982898609741378,0.009595806944761937,0.0022228587489941274,0.6249075663280903
562,0.4552132534777121,-8.952715085448407,-0.14831122900535154,0.008843555874092926,0.0027667575668860324,0.6299595519153586
563,0.06094023066947693,-9.313402414117903,-0.3824783497059263,0.00916728060124576,0.002557592457385461,0.6422536869248768
564,-1.5283504795626375,-9.075905550005562,0.2769361499482144,0.00654711503651144,0.0008962796782744625,0.6567567145440187
565,-1.6026941857992756,-9.07222606468062,0.1414984819188255,0.00539924557973665,-0.0007800135275519125,0.6712676869666
566,-1.1483236539268153,-8.972815079445116,-0.09075012851743776,0.00554053457637658,-0.0013970629683422741,0.6825553553647707
567,-1.151641697710566,-8.983584486162371,-0.3163499968215864,0.006028184609085467,-0.00041748967978146045,0.6886958272904116
568,-2.232716877540816,-9.236016624117507,-0.45359445085589656,0.006382907386498716,0.0015672906909221665,0.6886507751945692
569,-3.534096092856601,-9.119607701521298,-0.016564379594477856,0.008914796657620318,-0.0001693306388007043,0.6826758783649566
570,-4.020875220498448,-9.03445665295696,0.28566459202540345,0.010719840107822034,0.00036377024624213147,0.6782187741447837
571,-2.8750256570112778,-9.003918573866612,0.24953083185566347,0.011383059954202121,0.00011615383495633248,0.6696048174287835
572,-1.7498766579121008,-9.047311147040892,0.07642838171366464,0.010156001834153997,-7.70599210361394e-05,0.6588189508460695
573,-2.0660723232999807,-9.155941305181923,-0.014206305906097897,0.0072283200059437966,0.0009103864511580606,0.6486703403130046
574,-2.5051614259148516,-9.226435053750796,-0.05529498190175672,0.006468556693300064,0.002612010407417601,0.6392747037795863
575,-2.2930090710718742,-8.818850956950355,-0.4808222787588703,0.005637076958651494,0.0020501867386812003,0.6374619696300217
576,-1.5039974393721702,-8.85318272302571,-0.2530688554563718,0.005845477536060237,0.0006528788363271092,0.639335492935287
577,-1.3898599257162698,-9.008878036934128,-0.07124099086981092,0.006966977367838509,-0.00039058120347372575,0.6444248260430238
578,-2.5545368399708557,-8.890285100153623,-0.4235507649379943,0.008479077889069188,-0.00027713256667841614,0.6512754571761804
579,-2.464985772990192,-8.631518907329184,0.14796434585402485,0.009313262411516258,0.0005683305010659566,0.6529938337917371
580,-2.298044195510129,-8.89868703566236,0.20784159966211002,0.010870942492038765,0.0014108386510974708,0.6585308486964621
581,-1.765837804237064,-8.801522548516203,-0.17298086666853105,0.010908327280939129,0.0011680431122700974,0.6612092617442554
582,-2.106304300281834,-8.46576254513679,-0.5073132319580586,0.009729037212465125,0.0010031555813542535,0.662731366428956
583,-3.746500496262101,-8.240832253014766,-0.37746623272973623,0.008418653185170932,0.001870675260898171,0.6645411211797476
584,-3.4181465839997047,-8.684895039138077,0.17339503975518392,0.009280228409289848,0.0027117246581491515,0.6619874885028637
585,-2.6668556249646365,-8.898252664018955,0.10047450746796704,0.007866772613100675,0.0012810638157214082,0.6594086596528207
586,-2.6469316307930044,-8.757293522922978,-0.23964025848728035,0.006756963788360815,0.0006880247264984896,0.65517344505889
587,-3.1179897195925297,-8.681215454596574,-0.3434624033171714,0.006282919513489699,0.0006877138079024198,0.650726185890572
588,-3.4693797128822577,-8.905155830618652,-0.07352226879187272,0.006298182733967227,0.00042777621003725706,0.6479502466372427
589,-2.5676100975339544,-8.762688575805702,-0.6003559075850735,0.006275945383816942,-0.0012757613535448133,0.6487969401353079
590,-2.2288308300226154,-8.4836130905244,-0.03787627853939615,0.007040665112941355,-0.0006832771638791727,0.6481175837251367
591,-2.633059682266209,-8.444520353204652,-0.1753441310057777,0.007352534336418656,0.0012780636639879365,0.6478319154479703
592,-3.4365634590288616,-8.538165796217374,-0.3736645226244536,0.007365175688472127,0.0021134253629068304,0.6471462643246988
593,-3.9617335424289273,-8.607028728943313,-0.08261058483804129,0.007229498701100768,0.000804599668778859,0.6460918704696269
594,-2.6723907608472617,-8.564136266376781,-0.14338917774334578,0.006384675005022946,0.0016681323106622786,0.6486546560803508
595,-2.027216658632038,-8.100716622414849,-0.11333803280477076,0.008561618023818971,0.0009564834805516751,0.6504531447954179
596,-2.743538079727357,-7.996894889512173,0.45149489616655425,0.008862898635633536,0.0006624571249249603,0.6516008494937613
597,-3.8848682074435024,-8.3110147890079,0.46482608326986813,0.008033009648027613,0.0010178846679867353,0.6510577484116074
598,-4.477290029512152,-8.83506591311938,-0.487219774021106,0.00735148737879001,0.0016027820878381715,0.6484936053312492
599,-4.0935685220734985,-8.878616988390148,-0.20801182663084766,0.007359544735308609,0.0007477629741378999,0.6459259031075282
600,-6.836807402825144,-8.998629038843731,-0.20540599154226835,0.008144423078345866,0.0014356801318934082,0.6433702725885244
601,-11.004887578430433,-8.697321397157234,-0.043509272056933744,0.007989970731724666,0.0022704790182328134,0.6266852324347669
602,-14.738850222204118,-8.452284174391338,-0.010363447215199745,0.008797744316464592,0.0020126224978960884,0.5851488678882378
603,-16.486501652361763,-8.620330966966968,-0.19986485980817043,0.011212673683802445,0.0010358152464013315,0.5134836146011811
604,-15.405629903052134,-8.888912766380459,0.10834478245264631,0.011032992856501637,0.004333822598963311,0.41608771473630723
605,-13.280908612460117,-8.519182174118185,0.5044424178695416,0.008200396187248944,0.0052432611280708525,0.25146736306578465
606,-11.509956690473176,-8.432119553514179,0.6590754647063648,0.003975696488875028,0.0036741757304490337,0.08167586069690771
607,-10.090069231881904,-8.731568876771666,0.4226121059728347,-0.00021974748591392244,0.002404444035279687,-0.07081277207116417
608,-8.84785100712863,-9.173198833278137,-0.22229199513114944,-0.0034764478518469265,0.0031491138291446356,-0.19240656006777163
609,-7.62446788240891,-8.829761877918953,-1.048219426186239,-0.006273712426769717,0.003931831806667829,-0.2770128923160635
610,-6.948675731956263,-8.467501055433075,-0.6041980396015922,-0.007712848402455404,0.0008117995402976896,-0.3396498143001466
611,-7.957550574912583,-8.819452738051147,-0.21917295163046743,-0.006818097254773721,-0.0015275441952681764,-0.3940287150462771
612,-9.34721616652246,-9.023948347414523,-0.04968354138090991,-0.0055350644248444705,-0.0015082215770805792,-0.44277271967321696
613,-9.767945668212409,-8.586759551549187,-0.16231398749552434,-0.004926902524035455,0.00025529932896854626,-0.48995777927230266
614,-8.344757743508945,-8.375683816394716,-0.7651844977406486,-0.0029086456472326634,-0.0015343317045034143,-0.5463499153440036
615,-8.204497773013616,-8.010460924610806,-0.11265506244740085,-0.0038961472679669533,-0.0025214197269456686,-0.6145869302274417
616,-6.052406774433314,-8.652709422157145,-0.1582305722975645,-0.005656426865898621,-0.002868066785745848,-0.6895719129148987
617,-3.197922710090011,-9.06511117570775,-0.26764875708632874,-0.008087441401337441,-0.0014698151959290364,-0.7553493902007806
618,-0.7963023824326805,-8.558986307644432,-0.037079515184966376,-0.01096620051569612,0.001465605342061782,-0.8009972601051667
619,1.5248034988239325,-8.330653753709592,-0.26761073834422777,-0.01329365243560418,0.0023096761021846033,-0.8283500090259613
620,0.4774972259468745,-8.493430020141105,-0.4196195769982207,-0.012203731116336651,-0.004713839874601739,-0.7955036601793374
621,0.12129519414495371,-8.66995057528204,-0.3551609061192781,-0.012502834838796478,-0.003079866149552694,-0.7509447867513486
622,0.04460884131748205,-8.696735055137696,-0.23136735388618954,-0.011817156476639149,5.939192288427584e-06,-0.703441492466921
623,-0.45825168758426493,-8.568174413272173,-0.19264719082791118,-0.009080638457895206,-0.0009738611281480003,-0.6567416733440007
624,-1.8496634272300725,-8.589222097508694,-0.2965334753045091,-0.007714138015620668,-0.0026402020983524854,-0.6114541237497225
625,-4.120144816058465,-8.962676671919223,0.09767221328922643,-0.004613835070178031,-0.0011737835449494105,-0.5884295357044611
626,-4.727467970059762,-8.7065288857284,0.14964151849036103,-0.0035892340727816828,0.0005303962884336754,-0.5798856563710056
627,-4.488082925340393,-8.471192519887484,0.05265006752438169,-0.003911715753781643,0.000752848680581462,-0.5858463577686768
628,-4.276141284139769,-8.68335693310512,0.011684297706923075,-0.0047921793899459355,-0.0006504361705780899,-0.6053161493996118
629,-4.435503666777383,-8.994306137596382,0.06138903661767951,-0.006274802472424591,-0.0006698990312286762,-0.6352324860365021
630,-4.10825381541854,-9.266581949698063,-0.1458894753904894,-0.006981156345820381,0.00010282504462606737,-0.6627405089671498
631,-3.3051415285009025,-9.041914522058041,-0.2943523009979683,-0.007655308487581256,-0.0008249405001961125,-0.6895052325908412
632,-2.0087079522936166,-8.722528483962364,-0.5575599259285104,-0.008360490065907685,-0.0018008296553554326,-0.7115120093845884
633,-0.7373571882665881,-8.622584992463572,-0.7739523161683846,-0.009428364994731216,-0.001805359997382789,-0.7248458646798092
634,-1.178853577628251,-8.745209775770364,0.033833549395723785,-0.011933969028745115,-0.0017808549155723082,-0.7257156634618712
635,-1.2043840597142874,-9.070415286355097,-0.27186557171022646,-0.01289095882765164,-0.00016275849778161035,-0.7201413660734102
636,-0.806747389381075,-8.978198786087326,-0.48588371885559345,-0.011517568841847566,-0.00022091159834014098,-0.7041113370948652
637,-0.4141563778489331,-8.825945681306408,-0.3706516382354505,-0.008771826415791136,-0.0010780072477858337,-0.6843474664620173
638,-0.6020648246365365,-8.829215017379754,-0.02051166033233018,-0.005543745713811093,-0.0014477264250022507,-0.666192826708561
639,-2.2529820755865275,-8.785666731206454,-0.04044027855404356,-0.0022777312694465604,0.00024076284568298696,-0.6507844382225425
640,-2.8162789236419705,-8.986974975179987,0.18574918789678618,-0.0013648039213899686,-0.0004680951226322122,-0.6418573249581936
641,-2.6063549308151064,-8.909064325315288,0.014063105372078596,-0.0034573278792928456,-0.0007032464067779068,-0.6392686713040789
642,-2.1003040744848005,-8.87184907153218,-0.268979971511037,-0.006419296115651481,-0.0006753140871973457,-0.6411937995574255
643,-1.8548193347890691,-8.996088185506103,-0.43298832283219846,-0.008899240581907681,-0.0008243578076274487,-0.6463257738475268
644,-2.5948192807530197,-8.924067719013218,-0.46193299445857483,-0.011363928881614386,-0.0016611279250428595,-0.6548895302856501
645,-2.6506035860000576,-9.08954744378022,-0.4547447495444422,-0.010626272832168998,-0.0009158338167880496,-0.6650475249331773
646,-1.9295394211273331,-8.661497551022746,-0.2705340221251636,-0.00912549080598626,-9.166311748598795e-05,-0.6758866287767444
647,-0.8389427018518228,-8.518596806920844,-0.05443271967058213,-0.007791310340578566,-2.805474223959757e-05,-0.6815935047148758
648,-0.12037331158100803,-8.924633552125396,-0.0819440095840302,-0.0066219616897933145,-0.000375335042559642,-0.6812509406334821
649,-1.123248970294578,-8.874739281906399,-0.8643056149322838,-0.004083164085465023,0.0013016114247768299,-0.6829371218971799
650,-1.5356300786522261,-9.093205715081336,0.007330568906374291,-0.00560386641732043,0.0005910783112260137,-0.6773297748562845
651,-0.7813006449555121,-8.911065522913388,0.11590687496238092,-0.006752693888189704,-0.0008402774482733935,-0.6695571308619532
652,0.05791510072990477,-8.851483017688853,-0.33252361454488866,-0.007262562229325824,-0.0017554790205953211,-0.6625753631971512
653,0.043749665312954655,-9.163389839211398,-0.7859012403064323,-0.00746622176432052,-0.0015718222793690312,-0.6574490956109106
654,-1.4429906295058181,-9.538697133775347,-0.32754253556751034,-0.008327477219968737,-0.0007051611052777428,-0.6523227812313308
655,-1.6411197138503466,-9.249842664529405,-0.20597278552792572,-0.007584266374994834,-0.000672271138921572,-0.6488272693762707
656,-0.8012502271976121,-9.102082128735734,0.00882521018973749,-0.006771460669357096,-0.0012807666759957663,-0.6460126182733076
657,-0.35389025844806615,-8.952285874857148,-0.05858644187493352,-0.005555788978379442,-0.0017534773777571559,-0.6457995117344398
658,-0.9828613292447471,-8.918122479914961,-0.27756422647981593,-0.0043906205107826345,-0.0015891897370750325,-0.6485352180786917
659,-2.134507308910066,-9.637126514738178,0.37751202527602845,-0.005197105148313957,-0.0007329566773795961,-0.6519537322268399
660,-1.2455197414297716,-9.04336700130075,-0.153229205602038,-0.005199008703158013,0.00011509031722277052,-0.6553675188738669
661,-0.2944578435936293,-8.89460895990011,-0.2799831398920398,-0.006381596845930097,-0.00023769114884553667,-0.6575765972973407
662,-0.2973780442348281,-9.108970829441255,-0.067528216416382,-0.007273108971094941,-0.0006875284970790335,-0.6592930265005515
663,-1.160539621808899,-9.41106035866061,0.1388280652358824,-0.0072645096168373,-0.0006891657749765,-0.6606346169698395
664,-1.1677614820492743,-9.346757034614383,-0.3417854909738546,-0.0072645096168373,-0.0006891657749765,-0.6606346169698395
665,0.05354825684556774,-9.35820371730666,-0.13156171730283267,-0.007256421460133413,0.0001336062453271483,-0.660630586168272
666,-0.012223313496679072,-9.063912549414706,-0.06992832363546544,-0.006675890144576438,-0.00023903921657124734,-0.6581787074404828
667,-0.61674581024205,-8.80012638658958,-0.027850073909077396,-0.005857429533955745,-0.0006980891001758516,-0.655957867733267
668,-1.048778639963839,-8.748410906291433,-0.0363559075648589,-0.005394652435086134,-0.0007013782485081729,-0.6547264734193092
669,-0.8119016240795008,-8.835435000933176,-0.4229706990132231,-0.0062486362303092735,-0.0006897281941940455,-0.6521678658799885
670,0.5216382957216091,-9.282224357026362,-0.22676323746818816,-0.006287604794790213,-0.001514788981099474,-0.6512667146111725
671,0.4202631395660454,-9.14183632029149,-0.43013236538677524,-0.006898868079993952,-0.0017451374085714806,-0.6504171817899578
672,-0.5695470441691117,-9.1297590464963,-0.14720838118178453,-0.0069454745447356326,-0.000938530731078362,-0.6491554820275918
673,-1.4245591374924556,-9.3393552562464,0.37296245327745997,-0.00610834937127738,0.0001881043923264396,-0.6474359060163412
674,-0.5646763115384396,-8.922145940369782,-0.7993428273735181,-0.005290122817488688,-0.0006702226757271995,-0.6457266737993494
675,0.5973227090502535,-9.161700843026646,-0.43551972826502816,-0.005274820322312638,-0.0023551580501246392,-0.6473557482627094
676,0.6848587401339388,-9.291059766819028,-0.15942268533927742,-0.0052663572723720495,-0.002205882934432578,-0.6484443624205913
677,-0.10021957212965416,-9.236493928733992,-0.09088960680127625,-0.006445106465960265,-0.000936494291366197,-0.6492998911364521
678,-1.074585224422429,-9.05424814794197,-0.15344533481407258,-0.008368757261491232,0.0003986781672527353,-0.6497702375730747
679,-0.9652944061180696,-8.944546439809363,-0.06781027832118558,-0.008374232800897415,0.00039972068502530016,-0.6489159953519134
680,0.7950338595082717,-9.095332281102563,-0.19454388321978305,-0.005949306248285816,-0.0012896334719486415,-0.6463826597027966
681,2.533029181917228,-9.071237042509658,-0.16438194467187112,-0.005896932740356329,-0.002372182383810957,-0.6456947427190436
682,5.2186682026732205,-9.177928401650075,-0.28321974247395376,-0.006363862703511018,-0.003215551288663485,-0.6420037739132015
683,8.55069637459347,-9.385960968579377,-0.5271621568906613,-0.006459182019967215,-0.005040600904439297,-0.629963488664143
684,10.556929149369969,-9.222667302741705,-0.43856404811535904,-0.006679219153971702,-0.010120418408584063,-0.6035006076130993
685,12.261702663798589,-8.919293684742893,-0.1466870895175983,-0.004609285691882979,-0.0042836967888733035,-0.5324559515449911
686,12.610553839214475,-9.162384882627514,-0.13488066180384722,-0.002360977844622357,-0.004438668700832664,-0.39606488702139925
687,11.164653141138302,-9.384646815425807,-0.2381621248435261,-0.0012639722345495921,-0.0035116297014277597,-0.23377900630486043
688,8.31148540578799,-9.377604756258874,-0.3671464278711315,-0.001233841895614232,-0.0004739928175583149,-0.07268329909885052
689,5.388076380483717,-9.383269390003496,-0.5369530914407802,-0.0005292605486491562,-0.002014165806723553,0.07599323124437551
690,-0.08442235575634638,-9.705934036913225,-0.2910071658431872,0.0011690267701953264,-0.0035938671097239428,0.19852487466774527
691,-3.392068323941273,-9.319530835358531,-0.18135485615869051,0.0032438511943984915,-0.006504177108465004,0.2620432717645147
692,-5.971810281302039,-9.076629730181235,-0.21870105925988545,0.0039414442551313125,-0.010312194845130235,0.28342685201413576
693,-8.003044191572874,-9.328411226215193,-0.4720434845610494,0.003210364012073092,-0.012129160824065021,0.26406841267601455
694,-8.133037675899644,-9.836649159874945,-1.0887003914175333,0.0029306238355682234,-0.006251505938839225,0.18633742151121485
695,-6.383138779212235,-9.336750896622846,-0.23714106740974553,0.0037278059385476804,-0.013971649013355751,0.04924037310943845
696,-4.028311984867466,-9.260821722298271,0.2908308911661147,0.0026484503373380365,-0.014811738064463058,-0.0743817074379375
697,-1.5047796992152385,-9.343535324226398,0.2626120204167366,0.0004307619369904353,-0.012787791224990613,-0.18134698022782797
698,0.813348908507789,-9.374243016740886,-0.1623360664750817,-0.0025842054603177466,-0.01154678643186482,-0.2632415711730227
699,2.609666278963976,-9.21695748491077,-0.41990414859005887,-0.006525577794887838,-0.014110978637929305,-0.30514697542587593
700,3.977848795213659,-9.07164549405532,-0.4634653649941666,-0.007408438266778786,-0.015807578532206067,-0.30278351111344787
701,4.282728415883854,-9.223389464449742,-0.44816780277057444,-0.0053253177419544506,-0.020049877624967113,-0.2772531188451759
702,3.980434073132644,-9.363909473838405,-0.44116828122677293,-0.002277740337893093,-0.023023564318499567,-0.23498965454987847
703,3.2562853153504823,-9.382045250001157,-0.38192571673296927,0.0005053475843890668,-0.02554174545972293,-0.18329130268840316
704,2.012206650287669,-9.371316240684116,-0.08019044300094422,0.0026013500675548013,-0.0331708425099671,-0.13033829173837816
705,0.8562275544781239,-9.412157108850675,-0.15558962075425128,0.0031391415267886117,-0.0356836890656886,-0.08762336098081819
706,-0.5022741078581591,-9.367887222738409,-0.037242419216560074,0.0025224653203945262,-0.03948547523904421,-0.06289293439549822
707,-1.6009576216313173,-9.268988535688003,-0.032880234491494575,0.0011822947936146865,-0.04458283093195231,-0.05785949413647201
708,-2.269648167747612,-9.268938571899849,-0.1772155014034918,-3.907416816622175e-05,-0.04990285468756913,-0.07054962791870992
709,-2.622985348490262,-9.635863148478563,-0.23849908505241446,8.676296995231895e-05,-0.05333037866095567,-0.09540830020610684
710,-2.3052234979137105,-9.622951211217723,-0.11458626115986799,0.0003303302171572034,-0.05423023778555688,-0.13471804320422393
711,-1.8539802973520576,-9.387272765517434,-0.039148009106703005,0.0006009058274189668,-0.05449048730500847,-0.1772512528458999
712,-1.1961370288940394,-9.367815965319307,-0.052978993341381626,2.5155503438392495e-05,-0.054966404046704415,-0.2204024543183986
713,-0.35876598725481645,-9.560008366726612,-0.14944702896137174,-0.0009799845287659372,-0.0560729716703693,-0.2591761450972911
714,0.5353861563584891,-9.549090381354224,-0.2753056669548165,-0.00082936784903377,-0.05780992928738857,-0.2864240715079226
715,1.2185741350980743,-9.147607353951521,-0.151922842602985,-0.0015843054419159353,-0.059524767033806436,-0.30181770945714914
716,1.1694878495518175,-9.249319399289952,-0.430939707372513,-0.00048561698301042395,-0.061248107559825744,-0.30876092669831945
717,1.1664447326308631,-9.421128203145996,-0.4379041680985677,-0.00011035871553161404,-0.06339236616078961,-0.3095496104112155
718,1.2704676259158663,-9.426757788086151,-0.18003394442378207,-0.0005644995887533988,-0.06616254089513601,-0.30521209837868946
719,0.9312262970473981,-9.208833837439697,-0.25005857387694413,0.00017954038343491878,-0.06955696668126646,-0.29584684980685055
720,0.9370037852396984,-9.331113716696539,-0.04046098331884381,0.0009418855131908929,-0.07211256723345338,-0.28816467327599304
721,0.414940457711059,-9.338042700555327,-0.14261540838653172,0.002354455436779763,-0.07532870839857128,-0.2830924890072357
722,-0.05765065638814506,-9.308172066503683,-0.29245605292083643,0.003128058622231783,-0.07874441414744268,-0.28235279987999395
723,-0.19522870139988643,-9.330907378748151,-0.25629476538918733,0.002905569123321866,-0.08215696723941715,-0.2876631649297451
724,0.031177991527984155,-9.498390199287082,0.1470191848572898,0.002132079296971119,-0.08552870234310903,-0.3005895715924628
725,-0.2028102802602035,-9.47518558148222,-0.5645359840877948,0.0022387220695594787,-0.08640249167116573,-0.31853764432394555
726,-0.4194134738255102,-9.277918760493217,-0.09797557575304389,0.002986857893001067,-0.08662673261699044,-0.3351655147360776
727,-0.26695568862559105,-9.237629494538153,-0.07675132848401098,0.002190515001842762,-0.08796779196623303,-0.353630613293752
728,0.20046198132738852,-9.34102487115067,-0.5187316557221757,0.0009098729628950905,-0.0909954341480064,-0.37369811100839
729,0.5958797456820405,-9.309157416027595,-0.21508943903026015,0.0026797926506842867,-0.09525910423840694,-0.39241516276694177
730,0.38403851196436567,-9.282525400005454,-0.08498220619559352,0.005258851028323498,-0.09785885117631075,-0.40693825877597306
731,0.5426666908956754,-9.224367751260463,-0.19870830878562268,0.005233060307265903,-0.09713129295659273,-0.41353969347699226
732,0.8985949151598185,-9.120125497261387,-0.49129399675889796,0.004868130668060848,-0.09766167608350065,-0.4196066807636598
733,1.1645772365927884,-9.027769088041525,-0.7474387441736597,0.004890787725855675,-0.10022702621926534,-0.42707432213238916
734,0.9903383150427336,-9.059204708175749,-0.6396065855295615,0.004909412492058029,-0.10276904744534779,-0.43387823677748844
735,1.1636629608117617,-9.242253960557216,-0.13212837021515358,0.004925519341805931,-0.10447988557000794,-0.43901364514366753
736,0.5425708217594961,-9.32145767359396,-0.18133458744484288,0.0068558178973264754,-0.1081926986307175,-0.441491606125642
737,0.5048459998028106,-9.585993050055507,-0.18030337923654793,0.008032265508060988,-0.11111956261045566,-0.4445611450341006
738,0.9164148899036599,-9.775382450593579,-0.12675176651810868,0.00804199817909981,-0.11354352700448578,-0.4497991024006517
739,0.6435655688487505,-9.295342059179847,-0.430262649938174,0.00805107415191556,-0.11771083407146356,-0.45761199442533257
740,1.3383085239728518,-9.525733714058338,-0.9641987771408062,0.008113897185199464,-0.1185762803206695,-0.4687237230714084
741,0.8235744615551129,-9.741074590618208,-0.6791353053954947,0.00815507684309415,-0.12077159864351568,-0.47850742499570753
742,0.5964385910752455,-9.656133174579935,-0.4916206655678741,0.008623861317281364,-0.12334185199075696,-0.4860974606128099
743,0.9435722697442118,-9.269257870172797,-0.5055326408428694,0.009494097389472765,-0.12543423036328782,-0.4945045145954546
744,1.3327116861662651,-8.79337780146202,-0.30143899656047446,0.010416163339625998,-0.12631246957866019,-0.5091179110763812
745,1.2243837825606225,-8.781281621228228,-0.08775916030905345,0.011354091771016083,-0.12719372893823766,-0.5262060228683338
746,0.34086247793496294,-8.978324470602518,0.041717624360182226,0.012249109179311945,-0.13074932067611494,-0.5406228851203179
747,0.9580380525787612,-9.309335943016826,0.08379667653480093,0.012686183818187001,-0.13411540799223637,-0.5533915080770044
748,2.4662532949958216,-9.575912786710298,-0.23846396933105807,0.012748199892245892,-0.1354608920816974,-0.5651147569371037
749,2.4756541374731134,-9.51399506569281,-1.2496666655719384,0.012897472656840086,-0.13400071829960633,-0.5760497011156894
750,1.4727784787595435,-9.342790838218328,-0.371604469587461,0.014572940055364334,-0.1382863402606559,-0.5828962810627933
751,1.5036804399795083,-8.998814674442482,-0.2885095913983493,0.01625996922346481,-0.14190005774797265,-0.590414786935115
752,1.6679931658477298,-8.748831971308382,-0.5486205152749865,0.01747519970939761,-0.14394144234880477,-0.5925630369630019
753,1.2450402410846517,-8.770663508473538,-0.7027899373870368,0.01830389047650342,-0.14505154994917993,-0.5929922886885972
754,-0.2032479931742555,-9.127586985079647,-0.3639089166744099,0.019245855891592677,-0.1468107714939132,-0.6008685997643054
755,0.7418527836163983,-8.682055017679584,-0.8057580100866257,0.02180848765101375,-0.14940739087849988,-0.612828969109856
756,1.005371422730182,-8.84976759116838,-0.3484095763242937,0.02300465620855254,-0.15266107233924342,-0.6200514365042525
757,1.173383386292308,-9.030759012599141,-0.008221637418674835,0.023864416732361782,-0.1570194485508987,-0.6302403812508914
758,1.4194199112188466,-8.974737374280044,-0.1193956615355175,0.02450610932857361,-0.1611464780916517,-0.6446872173172822
759,1.674885481440048,-8.675544590761229,-0.5536451190191714,0.024630324577168884,-0.16287001942956458,-0.6605267431280705
760,1.6349245214433001,-8.999068625002778,0.11105031690669154,0.025499629526046404,-0.16459249961461575,-0.6682207636501083
761,2.145322694146531,-9.019989833541786,-0.4167426186464954,0.026388997822500454,-0.16427360687384085,-0.6759041430971268
762,2.3610612025714044,-8.84273256219204,-0.7015801699621131,0.027286087490326967,-0.16531558789452683,-0.6868797302581016
763,2.2510404261264063,-8.615220761483595,-0.7073098212872415,0.02892401199377672,-0.1681583367667995,-0.6985018249171949
764,2.242503627275755,-8.533141547053495,-1.0336789906653954,0.03219715666004542,-0.17160844144855295,-0.705510825538574
765,2.813030586265402,-9.002838582414212,-0.08251076819088034,0.03390369145669106,-0.175046351872013,-0.7157709984042901
766,2.124695785976975,-9.071177097936856,-0.24943696968027734,0.03491814321141979,-0.17915923547567042,-0.7239817710310754
767,2.2748981377332624,-8.55736104259553,-0.4653962899101525,0.035787113141197424,-0.18060656355181778,-0.7312010808464602
768,2.2117353863432925,-8.174335976869607,-0.14591317522601666,0.036927926044721615,-0.1797729332271213,-0.7375052350830256
769,-0.1858749483868326,-8.940172806012974,0.8372807869859779,0.038552691701814065,-0.17908667998780475,-0.7432380902169455
770,1.9099088933703303,-9.043789428791296,-0.5884545778526411,0.03863999598789757,-0.18081107378017852,-0.7594810537743364
771,2.4814034619884024,-9.126569154843455,-0.2556864595406824,0.03936032501866985,-0.18322228906769872,-0.7702083128235457
772,2.1483230750390487,-9.17895503034497,-0.09135955674952242,0.04071961172510852,-0.18437805882417288,-0.780558864184679
773,2.0120949156430328,-9.153979034837661,-0.3406739153059121,0.0427116217476102,-0.1854640356158701,-0.7913968417422592
774,3.215026556029205,-9.035213148659283,-0.4550640586670847,0.04530287927563863,-0.18880805077737275,-0.8011383239450044
775,3.5173817714262503,-9.452013422358718,-0.3296328675321518,0.04864492988074072,-0.19054877995870861,-0.8028362902526408
776,2.9098373068344,-9.05547843871527,-0.7943754874380984,0.048009089418776726,-0.19157335303389816,-0.818415094245548
777,2.80712056379269,-8.967732687274511,-0.8578067837516052,0.048750211245682615,-0.19436579235925758,-0.8324191730152035
778,3.1312174441657983,-9.146903793724723,-0.8395227514292545,0.05207936313966298,-0.19787183919154,-0.8426706126016666
779,3.1340048090475565,-9.054276519665994,-1.4714265046606185,0.056879901937842724,-0.1996364019021732,-0.8527944047922306
780,2.652066002339788,-8.869029304449565,-0.7868046586292248,0.05775546298086845,-0.20135993162003027,-0.8613418608135195
781,2.8543886354093893,-8.95974047378698,-1.0971081249822332,0.06063325458263491,-0.20309513250460443,-0.8629105493086093
782,2.5412645717048714,-8.844647141373637,-0.9983527665779701,0.06353853841797129,-0.20435385817640284,-0.8696760216640567
783,2.535433278316623,-8.46202415467719,-0.7800228501064754,0.06504234319461823,-0.2057750163264116,-0.8805516805524526
784,4.123802605763835,-8.055904553131946,-1.2229021657252686,0.06440547522976493,-0.20815918917115012,-0.8886430765568376
785,3.4184675889537623,-9.14580212694957,0.033766538783928546,0.06609074468378964,-0.20817830925698505,-0.8903417231566283
786,2.7648302555556796,-8.358378681428377,-0.33882877432700376,0.06775741745945023,-0.2081940046851945,-0.8892395677826483
787,3.042013348974854,-7.72838245164626,-0.8766191837179268,0.06988901673940398,-0.20626314371770116,-0.8831195381836369
788,3.619169350583634,-7.916844540341277,-0.9148573499929435,0.07158629693699474,-0.20341423422136168,-0.8778211271475043
789,3.374096381218646,-8.787867183572402,-0.19084355118660762,0.07174339762220912,-0.2017151233559732,-0.8806692856322906
790,3.1656253489464543,-7.901831907664955,0.7338879370879129,0.07340708468707974,-0.20002236279937538,-0.8763782816447409
791,3.229291041429137,-7.979804976705625,0.08561004112854739,0.07439845104941181,-0.19973309988435015,-0.8770272155858133
792,3.924183220411635,-8.285431728011577,-0.5625501934154511,0.07523838884567369,-0.19925143863658334,-0.876763407139957
793,4.242206990028769,-8.234991566346729,-1.0121506686444823,0.07633761118487783,-0.19868553575581566,-0.8742090824217494
794,3.137819426826589,-7.544148043733022,-1.4135029519024325,0.07792709747693333,-0.19869806760634517,-0.8710485353740409
795,4.803661855606692,-8.390571606098833,-0.004629933606247694,0.07882958571342207,-0.19871909428446952,-0.8812969317310946
796,5.021198066363833,-8.634058169779554,-0.7167631349647342,0.08241845137309527,-0.20016565550289003,-0.8802129964570902
797,4.349042378152334,-8.082375211386841,-1.125527660798394,0.0846782328028883,-0.19942599956428586,-0.8812335357107877
798,4.084640006093922,-7.714924835360034,-1.1319618563581133,0.08553163462768655,-0.19800503620910614,-0.881541929058744
799,5.3162020148213545,-8.566755763939938,-1.3186549141700212,0.08625356942205874,-0.1985097945371328,-0.875032497916365
800,4.316215100204058,-7.8347952494408535,-0.39803017960447307,0.0863308894955074,-0.19510977441386418,-0.881851342158199
801,3.893816557398365,-8.201149106635388,0.00211478791495108,0.08637602744278845,-0.19312472010206916,-0.8858317598258989
802,3.883196265028775,-8.228108046586785,-0.2798555155454601,0.08685300819494746,-0.1939111368553456,-0.8852613088989707
803,4.114580031617898,-7.966427068521513,-0.6026671746217107,0.08821051422150539,-0.19590753737648564,-0.8821312119939523
804,4.540620623783955,-7.8833075965720045,-0.2658103853136822,0.09069425561195542,-0.19656184220734066,-0.8788241641820908
805,6.383157899778593,-7.347440894152063,-0.7629245064544486,0.09315088655514325,-0.19487005297622503,-0.8676927055202472
806,4.693990838847519,-7.932978575840118,0.09217133769813396,0.09432128815557891,-0.1917568015699639,-0.8722928984432821
807,4.06581266076698,-8.1261019451034,-0.21813477036953993,0.09619276182935432,-0.18937367542753827,-0.8764443935920925
808,4.487367322873402,-7.829853306473998,-0.798387334768171,0.09787944734660037,-0.18797744031873997,-0.878426535355113
809,4.57449402679047,-7.4404010764681505,-0.032414074310512006,0.09782737910586257,-0.18712762954818027,-0.8807555684673037
810,4.768521338581904,-7.3106592939930195,-0.08750188945306457,0.09699820147326137,-0.18626721744458125,-0.8807563162419731
811,4.843898708797795,-7.285090353147184,0.004298610109259492,0.09755490676379244,-0.1854160813782646,-0.8771549632580459
812,4.100005191409826,-6.937664355712263,-0.3445865784835903,0.09841991773045913,-0.1850815025851622,-0.8809714690821511
813,4.226797538335724,-6.811256017563128,-0.7229777489929312,0.09986993347728979,-0.1853964242783781,-0.8874311087613108
814,6.61505611077489,-7.48462329583328,-0.4571040688345564,0.10245884745317338,-0.18619629635961563,-0.8884357551318955
815,4.6357849475624615,-7.454482303307296,0.6095452710947092,0.10582312512572316,-0.18623348601958967,-0.8909788107268536
816,4.4611986354913835,-6.9188384297064776,0.10247294083630204,0.10985557474875604,-0.18554821813454386,-0.8862919758218941
817,4.343905726220009,-6.995018307027232,0.593842859429872,0.11251298322285047,-0.18471604770127342,-0.8802910344744027
818,4.659751090848129,-7.088769876661223,0.9389409720659896,0.11244263108753363,-0.1832684816887356,-0.878163100205984
819,5.887228482378836,-6.488369687646441,-0.5371660928908131,0.10955361789518114,-0.18110703407004966,-0.8821168937623797
820,4.845354778367363,-7.420190485254409,-1.2129733286391116,0.110329812967395,-0.18281178655851674,-0.8752847859978179
821,6.246462203303109,-6.807365244228322,-0.016045394359547382,0.11117362768083003,-0.18380356499571454,-0.8778873975144945
822,6.1203613620956,-6.605226474916992,0.22984934744647306,0.11400501474107008,-0.1836573750573238,-0.874955916050736
823,5.172732554810544,-6.828552826406133,-0.10688682676396244,0.11700727558597349,-0.18193247587896136,-0.8714474760370746
824,5.20560159310052,-7.01310376885825,0.035103627728254996,0.11798815632993055,-0.17871376457447524,-0.8755224814051539
825,6.062595674958493,-7.328141121347356,0.01781229862670795,0.11969487743801219,-0.1770293391028048,-0.8780678261195478
826,5.075651583100365,-7.792706563088375,-0.9352296467054549,0.12067396236472308,-0.17387738466185923,-0.8762320509192589
827,4.721152924419338,-7.491884247664807,-0.06882402770906504,0.12052468939389008,-0.17253186967044934,-0.8783158279227679
828,5.170281871373513,-7.0121099978351324,0.7040577853207919,0.12028228056979312,-0.1728333577092953,-0.8785775196341022
829,5.8345480015286775,-7.082723547701885,-0.8700477517921159,0.12080462263564413,-0.17331868294193456,-0.8721375693961932
830,5.506675546615601,-6.654737613565467,-1.1176061128450518,0.1192266379105632,-0.1707587328965111,-0.8832432402519755
831,6.017178683012429,-6.499552467882083,-0.5348659253005632,0.12188302019058564,-0.1711588113294172,-0.8870045714166837
832,6.117916525732944,-6.66176241853762,-0.644894048238756,0.12524088968481578,-0.17048771556634024,-0.8874620660323176
833,5.662522217365648,-6.639907937647751,-0.8852578881559555,0.12858608557006923,-0.16942891598277088,-0.8853506646681408
834,4.945443044587749,-6.012564946822269,-0.42011874244815584,0.1317188472941593,-0.16945563470801356,-0.8808696063763984
835,5.036919940965846,-5.6339488774373,-0.017162768159785687,0.13335482661082487,-0.16946537017611527,-0.874878468774994
836,6.386214553506196,-5.727089689119536,-0.8466320007080642,0.13292378627884308,-0.16799973602827714,-0.8821584773630897
837,6.038905565623914,-6.256507226491814,-0.7912147423581182,0.133143986334989,-0.1662999126798025,-0.8842081446811471
838,5.1209160100185045,-6.662695320349407,-0.33892466179304265,0.13367433954305272,-0.1652199438284162,-0.8822594651556788
839,5.317576387424183,-6.451666834430105,-0.3184996580706681,0.13366539664176474,-0.1651194800700695,-0.8807126135478086
840,5.722000560885249,-6.192657835094734,0.1853182938583145,0.13362995644686357,-0.16425924738861625,-0.8738728981129095
841,5.671962853892064,-6.385002994456813,-0.4294369306570318,0.13652961757502086,-0.16343486642948352,-0.8722006374496954
842,6.3121197086679155,-6.218390717836181,-1.2850428202750435,0.13838142957695027,-0.16208238936857633,-0.8787197593032433
843,7.076351388921582,-6.219214634361064,-1.3166967359840296,0.1401972549051504,-0.1600880035398497,-0.883817972483172
844,7.2064804532472095,-6.8182808797660375,-0.05243829416311663,0.14294471333019113,-0.1573508666876846,-0.8798923423333649
845,7.026896861936545,-6.380924013302241,-0.1554786025210909,0.14134592677069815,-0.1530790430148622,-0.8850075558798963
846,7.441578029407993,-6.117102490852307,0.5979100289754556,0.1410772113010212,-0.15549082886448032,-0.880471491171718
847,7.210961541300878,-5.818306276901467,0.38730427656712724,0.13950325276578945,-0.15623201428410674,-0.8798191563059871
848,6.821772097810282,-5.653542263016866,-0.26997915683695484,0.13797782348597995,-0.15441586247186495,-0.8846153654702769
849,6.929709377511303,-5.799780946959876,-0.5292423419391545,0.13877779519300554,-0.15165873274653416,-0.8915493465190325
850,7.146846642071947,-6.1153117090101885,-0.5377377313265969,0.14459259417627074,-0.1534169100480057,-0.8872504525881588
851,6.714959702678123,-5.8590321119207776,0.20808990696902024,0.14828207380855482,-0.15068328029793732,-0.8874312294271907
852,6.410214130283558,-5.796740839319477,-0.08414241881495554,0.1521325275406769,-0.14997804057472425,-0.8829067312838323
853,6.640794198240636,-5.6263824207585245,-0.6220130197196329,0.15409130810047314,-0.15020473576817178,-0.8810118552640596
854,7.474414120832452,-5.109793428795522,-0.46269287200079107,0.15257749825052622,-0.14890566104007438,-0.8872771960467382
855,7.8754680928479575,-5.290231130493109,-0.4677427523880898,0.15176070449053794,-0.14463272365718902,-0.8838434704766543
856,7.715799791770266,-5.935218309762855,-0.09015558997384387,0.15236187831661197,-0.14637190339994338,-0.8811818915551092
857,7.0433522049832575,-5.406109690203146,-0.166185504017379,0.15369772664559628,-0.14732609846345446,-0.8780761929271697
858,6.507096112831293,-4.699772589498792,-0.4436906931661846,0.15536292928688114,-0.14603773374088386,-0.8746422093095692
859,6.729425463498821,-4.900442224605868,-0.637486940538079,0.15717004614788768,-0.142872060965305,-0.8731279912508664
860,7.765040221968763,-5.234829381567481,-1.2868043187722726,0.15976829927229397,-0.14120657615732377,-0.8842124457746193
861,7.276269656382257,-5.521730371996755,-1.3636870801300776,0.16082276622019992,-0.1387599295360697,-0.8839735905248262
862,6.803142058717073,-5.537417666573516,-1.0083153149589337,0.16113918020716222,-0.13620411268683474,-0.8817078445254036
863,6.939765134291088,-5.578338937251194,-0.8624336073823231,0.16081595587537628,-0.13429857877321927,-0.8788071266086719
864,7.635308560380937,-5.814331866505066,-1.3215752002669354,0.15985434972617396,-0.13354995877101625,-0.8762115543281911
865,6.987748425493875,-5.501081768605871,-1.4374798523594055,0.1581972488066254,-0.13353606024685752,-0.8787849163230407
866,6.24268861204852,-5.134682215414535,0.11275716851451817,0.15585975372821229,-0.13201055673826434,-0.8889440354874174
867,6.3763831282498495,-5.479409388898469,-0.22782962593424733,0.15764139828672738,-0.13196076499214662,-0.8907552441199535
868,6.717439894069521,-5.406172570928446,-1.0064186712661445,0.16116097055209752,-0.13118187000723977,-0.8876461959748283
869,6.709890127174249,-4.233147900284008,-0.6117018648542055,0.16391717551294877,-0.12827958015958982,-0.8844480737478987
870,7.387300617721533,-4.187316993896055,-0.1798156573533276,0.1680579783088863,-0.12831381369446873,-0.8775879440863423
871,7.4751735067413065,-4.642838535957219,-1.1303745400343905,0.17075406490730116,-0.12834215779089386,-0.8783626980340902
872,8.007293892139549,-4.894053746548993,-1.2625583315739717,0.17059552007748974,-0.12779549787084388,-0.8811698679097868
873,8.093519891601254,-5.230504095967338,-0.43851983096036634,0.16960213201603594,-0.12558792379146944,-0.8808737337437125
874,7.349360049537641,-5.533850755324285,0.5243487853076657,0.1696011204945907,-0.12219005669726409,-0.8754982276422553
875,8.314200577651896,-3.557557037206819,-1.393088865215705,0.16957341546832336,-0.12389175184581407,-0.8737972880042919
876,7.649601171347822,-4.088541852381608,-1.244366689353554,0.17030909362869315,-0.12177596076737243,-0.8682422309283918
877,7.265279526584667,-4.418909721856336,-0.4363394759107806,0.17118921414318944,-0.1203378275061051,-0.8727667810138908
878,7.785012826984996,-4.294888521245772,0.17026150055182876,0.1727472840570345,-0.11916935930826138,-0.8792565478313854
879,8.896829306553215,-3.989595713724169,0.14974485768910717,0.17477979820429324,-0.11710305948521715,-0.8797042894980472
880,7.815476099894224,-4.266178310349105,0.2517849956584653,0.17397396338640653,-0.11283140724061679,-0.8779790444515485
881,7.383111703958569,-3.7902874323277542,0.8355943151812995,0.17391686849463348,-0.11010521457841632,-0.8777970425544831
882,7.865648565537198,-4.067944068298231,0.5207004909447547,0.17281925925726482,-0.11031566514818314,-0.8772474796724565
883,8.559659992447383,-4.310410533198321,-0.033879338453528175,0.17116407173992612,-0.11097731619211816,-0.8812292409403084
884,8.697033343494262,-4.02402960808385,-0.1744016572812673,0.17007420466790163,-0.10999309800043777,-0.8902300029927201
885,7.718712009597973,-4.743874365113631,-0.21946951780456575,0.17174806739819437,-0.1083024164432419,-0.8876490922747748
886,8.201453765980986,-3.5077849739839424,0.6285577350290935,0.1772032226834683,-0.10896757029494109,-0.8873773705599023
887,8.310156852485857,-3.289493688202562,-0.0770244646470663,0.18085666695096125,-0.10761587814487733,-0.8839836662416192
888,8.307882617434903,-3.644609345372227,-0.7130156299617246,0.1833789197927853,-0.10543054257108114,-0.8823128099200361
889,8.538905578790066,-3.8743177734957808,-0.12806695005417904,0.18579715704048438,-0.10389001383063948,-0.8861153464899102
890,8.73630309202699,-3.9511413515168634,-0.25398790119835063,0.18751740318120133,-0.10306244988770168,-0.8920826395679226
891,9.232813605118361,-4.038369952279923,-0.6945336720278067,0.1861286478321126,-0.10063822423544012,-0.885624826766101
892,9.64739650371192,-3.7185777097608606,-0.626518486290603,0.18441915326513864,-0.1003092520367018,-0.8796365387524011
893,9.357178583637545,-3.5790834521784474,-0.3578934854376383,0.18339539249331474,-0.10044246651777947,-0.8738125285369245
894,8.379120355655736,-3.8017957009114243,-0.34750889897147186,0.18310581909044812,-0.09916591979456568,-0.8691983730312844
895,8.6203304876843,-3.0230823415566883,-1.1019673688075144,0.18150960648477807,-0.09574887261493001,-0.8760270504991129
896,8.546499237272858,-3.8407961799820614,-0.5605699044143204,0.18522914951148325,-0.09471978606957443,-0.8804929181223187
897,9.279545914377488,-3.6264533578370317,-0.42969669535953003,0.18778531388804598,-0.09333168565273,-0.8847437369772315
898,9.310173568586272,-2.9923324912092246,-0.2115058340209328,0.18773072384082834,-0.09020528632215895,-0.8818917149513643
899,8.135196368313636,-2.8453622002575036,0.2451026384786657,0.18546827138549013,-0.08633859764281847,-0.8710681257748403
900,8.814051230908913,-3.895217304044291,-0.598197916090693,0.18460011545992455,-0.08888470436852677,-0.8702305230424384
901,8.18174459262072,-2.7729728552290247,-1.0777632089549087,0.1815563244734565,-0.08594567397818997,-0.8811485236310141
902,8.773011539184278,-2.477650107411426,-0.5366605133647722,0.18269819544872629,-0.08654353815655688,-0.8833857209092273
903,9.366000845277144,-2.783415438159797,-0.2607615099778402,0.1849888990670841,-0.08697464213339401,-0.8836841693557884
904,8.945848611028286,-3.0848384526753914,-0.8339789243750841,0.1861553913478737,-0.08414030876330335,-0.8858860073421084
905,8.033005476644739,-2.7201509312823084,-0.48756941875070614,0.18865827496638862,-0.07989621094650769,-0.8781598000034866
906,8.773198760939941,-2.197343682100216,-1.470498955796089,0.19117377949695835,-0.07959165997966791,-0.8783358562221182
907,9.16073594270203,-2.6398015063714304,-0.4742153823192177,0.19316559131909158,-0.07904506240664586,-0.8843554232830484
908,8.925662786224184,-2.9431131605907788,0.09938790138470555,0.19486441783501277,-0.07785060634905687,-0.886353458256359
909,8.392472069716531,-2.4175778745226775,-0.8795950727405913,0.19622317880185902,-0.07600298030697379,-0.8802512061119365
910,8.904261232084522,-1.9036864542699181,-0.01142480301368097,0.19623187811473305,-0.07344338013302881,-0.8776751530597475
911,9.995202173929219,-2.39980364421186,0.074446856308376,0.19696541317325694,-0.07404723299526755,-0.8719426179691364
912,9.660134246567367,-2.045332304486044,0.2766534787913629,0.19555353971244913,-0.07373272240041262,-0.8746562378148711
913,8.958963941872438,-1.6967480363650949,0.3128020536868043,0.1930947874025077,-0.07213110010293881,-0.8803997762457394
914,8.777590187124567,-1.9254912333924006,0.01962781193348738,0.19197702536324673,-0.06987309656892426,-0.8828224114713623
915,8.94128568590643,-2.065675315714162,-0.25267436699788604,0.19696923800058433,-0.06906420366493005,-0.8768074254278297
916,9.057018459095719,-1.9115192605814368,0.566993053467143,0.19578112234681772,-0.0642291250993262,-0.8731963586718259
917,9.199410906561546,-1.9309327688944768,-0.7538044189654878,0.19579873468271797,-0.06259733814420199,-0.8674391462457351
918,9.4505671882212,-2.193064829601056,-1.6696885332462101,0.19519403733170151,-0.06259269583841173,-0.8687499661499187
919,9.653360790550801,-2.33020712525422,-0.6808981397512408,0.19306563418430028,-0.06226968685463248,-0.8797793620900373
920,9.09342589324697,-1.035204461886345,0.39667799230322387,0.1922886534159928,-0.060564926372241985,-0.886611474471138
921,8.910852227502415,-2.6411757730315064,-0.42763627758279055,0.19378630905627142,-0.061266156576312264,-0.8854494392346222
922,8.928862992188563,-2.335273251061726,-0.5972448196123026,0.19603686867053147,-0.05921295641816564,-0.8825441163702471
923,9.09062550154805,-1.8406870492376246,-0.6715237163358134,0.19892672630344874,-0.05620316889461368,-0.8798422968479067
924,9.233430425230392,-2.110335161169837,-1.0233369490782533,0.2019817890545507,-0.054160617851153926,-0.880199700701427
925,8.940222899471154,-1.3710089912774048,-1.1088733195244875,0.20371556294984086,-0.05418911456079894,-0.8895881361189493
926,9.407455550718252,-1.2504439706335604,-0.14971870367487308,0.20540679630212488,-0.05180284143433048,-0.8885289780872124
927,9.907949161507073,-0.9953736150884389,-0.23065718139077354,0.20359106571422042,-0.04745028504566966,-0.878547735617579
928,10.62177527843251,-0.9797198960151701,-1.0653463028766899,0.1990415374189513,-0.045659003861486726,-0.8614971967722612
929,11.095619239145384,-1.2374776534572223,-1.8482783788061812,0.19336078974093818,-0.04731349152536928,-0.841659336123735
930,9.398963540006342,-0.9601141173322767,-1.0503431884409498,0.18910450626115177,-0.045550442533700136,-0.8280044975519973
931,8.99381396591617,-1.1489574145304624,-0.4360258217159654,0.18730487625877207,-0.04140958141925575,-0.824001751046387
932,9.408911935377795,-1.1811057044293451,-0.8198444238563432,0.18673395637443185,-0.03949747657013221,-0.8116706998875574
933,9.843066235225272,-1.0110717988584652,-0.5106395168245781,0.18592454775921016,-0.03824344232675044,-0.8000075859046585
934,9.674168790538136,-0.7708075365977068,0.6359240008570141,0.18372589754938257,-0.03600333638012973,-0.7920074151777243
935,8.603407645565163,-0.8578656064942761,-0.5057179739951457,0.1794790990785641,-0.031680695208439344,-0.7757765189372618
936,10.322303413661253,-0.6831668711421593,-0.47523283415741924,0.17681815975970466,-0.03223021586468747,-0.7668511755455695
937,9.257477595884168,-0.7294292270409721,-0.09334634841556144,0.1737068240332219,-0.032452531840158526,-0.7648984548411188
938,8.53264990885912,-0.7128770747582401,-0.09819637677825238,0.17034602470189608,-0.032031680709459526,-0.7623078639375385
939,9.696445711746701,-0.5161685549899402,-0.730353979218231,0.16746845296284066,-0.030798648556705072,-0.7549664699809663
940,10.589549094806554,-0.3990417892594776,-1.3796942853080438,0.1665965764795539,-0.0282221937335061,-0.7455605936671125
