,acc_x,acc_y,acc_z,gyr_x,gyr_y,gyr_z
0,0.12633425938125137,-9.478398095978557,-0.1705832581987624,-6.913196720219093e-06,-5.1839481326892495e-06,0.0010601032354593
1,0.1490156964321367,-9.443693657564792,-0.166058476218634,0.0007696654594494656,-5.808270421862755e-06,0.0010694300336370455
2,0.14358771065201129,-9.448772486347865,-0.16360120030427783,0.0010286243248595688,0.0005753484380356954,0.002227009189947008
3,0.12993651482984062,-9.479232829048165,-0.1690543260041188,0.0010271060039033814,0.0006915533601651023,0.002457747189977443
4,0.13157615108507736,-9.503533936263548,-0.17701055292017687,0.0008843176404942039,0.00031064500614737446,0.0009143295946806682
5,0.15801525713335873,-9.480404827558939,-0.1523149022409171,5.445539490992175e-05,0.0020406357320404424,4.950899941179885e-05
6,0.19040011935827944,-9.466004900517612,-0.1608581686972329,-5.37234827474738e-06,0.0021507001064773705,0.0007854676370353419
7,0.2148167699356089,-9.442110565586894,-0.1721039723229964,-3.2111463199157807e-06,0.0009701025464231437,0.0004751020179425458
8,0.22021291859525896,-9.444914217990776,-0.19145183770673224,-4.867863275809011e-06,0.0003725626459935079,0.0007397652203307771
9,0.1902315339763308,-9.482220998485833,-0.20142493476555845,-1.4971002158417618e-05,0.0010656325518435528,0.002276558143523164
10,0.09181930590772777,-9.493566667112981,-0.12629099782786668,-2.05063931660075e-05,0.0010614817687776472,0.0031253819444597773
11,0.17123495827969965,-9.4476077513419,-0.19363827941001235,-0.0007995239492938966,0.0010657522200887932,0.0023715431961994714
12,0.17181688389430935,-9.424043541468434,-0.20860100759363928,-0.00048109250653572024,0.0010667860256457118,0.002111867800497738
13,0.15928664479524346,-9.417227305022244,-0.1848668386598099,-0.0003771299356298324,0.0010703664759409664,0.0013645761286536179
14,0.17561164151995398,-9.425692614861253,-0.1639568993516063,-0.0008830389214205852,0.0009121459682753236,-1.3756056392995833e-05
15,0.16581938002058935,-9.471937137032965,-0.2133300922729448,-4.772200626323223e-05,4.929503621537907e-05,-7.434175248898825e-07
16,0.1652599440075932,-9.50287247543797,-0.20118572328641798,-0.0007978860363190542,-0.0008201206296816802,0.0015947646034749326
17,0.19651900778824716,-9.50078052284826,-0.1905005088678286,0.00010995152655904903,0.00011515235591675536,0.0009435273983067591
18,0.18926654897048895,-9.485424880528779,-0.17684178224752284,0.001043068824754857,0.0006922293659942811,1.0131573596588204e-05
19,0.14100457051194604,-9.465577881877017,-0.16331411613526126,0.0010431178340942438,0.00016827285382030354,1.1943378462382414e-05
20,0.19192433030863618,-9.422763796205452,-0.17720780366447364,0.0010430371883833444,0.001030452306416162,8.962022393498829e-06
21,0.1714221269378842,-9.454994154338777,-0.17227354039412635,0.001037866003713479,0.00025532568222952714,0.0008156649635639641
22,0.16848181198974585,-9.471473274775484,-0.17839935515697836,0.0010362767726551985,-0.0006081059486146703,0.0010747133516318256
23,0.15240256959210696,-9.478022768826731,-0.16799057381863294,0.001414459699644482,-0.0003062831760800134,0.0006967102210080646
24,0.1312103258530471,-9.474466021772596,-0.14807314149909928,0.0017509481488361025,0.0009016664851741674,0.00018811568393609744
25,0.1992665432736233,-9.437057717916618,-0.19656234843631332,7.423660523862109e-05,3.667983893741672e-05,0.0010198488562981906
26,0.1713439227817917,-9.435725267540544,-0.19609836013198162,0.0007878991500108181,-5.822929206701748e-06,0.001069649022339027
27,0.14370056446354976,-9.470102218108629,-0.16668065555689202,0.0010361637863558484,0.000599825194732743,0.0010705364104693096
28,0.15134535631844992,-9.495808122144647,-0.15144442935836178,0.000662125908750117,0.001074832489750023,0.00029398910980219
29,0.18710153550352243,-9.491208631761605,-0.16656235617782894,5.694929041216301e-06,0.0009044765520631736,-0.0008893119040793485
30,0.17730927400415825,-9.476453847629077,-0.18092986331683286,2.401837445025889e-07,3.814631640132366e-05,-3.750674707386444e-05
31,0.1867072427483241,-9.449465964605887,-0.18585582678302193,0.0007930903338650771,0.0008196059754657892,0.0008181878329915607
32,0.17552561295830715,-9.43583439216447,-0.2158543325638062,-0.00014500366757126259,0.001071710209238863,0.001054722521962554
33,0.16262961167961137,-9.448251647726147,-0.19589990396799983,-0.0006674463010236255,0.0006771218861712049,0.0010498133938545706
34,0.16887767252897729,-9.466742193057096,-0.1330517704453129,0.0001690119787498897,-4.45592990196068e-06,0.0008845921807020127
35,0.21539091465095384,-9.417534419470668,-0.17860275168082232,0.0010097836392039111,-9.766262999900853e-07,4.579966256470027e-05
36,0.20171956752850592,-9.391494210019996,-0.18900284982718013,0.00024095038250285545,0.0008277865071406195,3.167397806743091e-08
37,0.17267437537712801,-9.425560201869963,-0.2041909208546891,-3.981364400224683e-06,0.00046045373915437436,0.0006022725295689393
38,0.14587445597721577,-9.465414368540706,-0.20478493982351598,0.0003819580735653746,-3.5747107201473958e-06,0.0006721473523388242
39,0.14145948288369697,-9.485895475658616,-0.1870537561787773,0.0006839403785596183,-2.325867464358715e-06,0.0003710450436370682
40,0.18748311193070788,-9.512936990580174,-0.1751230399637318,-0.0009976081398987062,-9.28837211718845e-06,0.0020494270975652496
41,0.15037669428386718,-9.486853666776089,-0.18334864480731755,-0.000245946768190098,0.0008255707512804537,0.0012958454464851322
42,0.1389662215814037,-9.452479142129707,-0.15444023145907426,-0.000604811368536632,0.0004549390284888565,0.0010513335156629691
43,0.13119408926610274,-9.45830619928202,-0.14897985950609155,-0.0010474624678460797,-2.4074007962836416e-06,0.0006512734955982036
44,0.1263935293522583,-9.501224059085713,-0.18058069425702877,-0.0006790128271455167,5.458852612722884e-07,-8.155021450289094e-06
45,0.16409373612481032,-9.50219593553199,-0.18748555562503139,0.0009914597117474595,-7.970736665807084e-07,1.1907544148153812e-05
46,0.182815242175404,-9.445491612064812,-0.14418188640466179,0.0010430555012414596,0.0008346704128821793,9.639022448078722e-06
47,0.15932428216600533,-9.462772591731282,-0.1657557986363281,0.0004455173718456978,0.0010794173955494303,-0.0006097064765280308
48,0.1496605015407586,-9.47473575822403,-0.1854793502153711,1.63338322367333e-06,0.0006717535720402035,-0.000262406416969521
49,0.17855028686721117,-9.448764192582036,-0.18436167203749415,0.00017879395395935317,-5.333245454354019e-06,0.0010623335995065114
50,0.22457391591421955,-9.42661271854857,-0.21899038958205264,0.0010140302234058,-6.0047249182804715e-06,0.0010723648823057104
51,0.1843319991751692,-9.468655970106484,-0.20253032157096612,0.0018444794479982535,0.0016686137403119144,0.0019036467350964513
52,0.1850135004298611,-9.489983370482724,-0.17932103570289107,0.0014716266894071355,0.0008960980346580581,0.0015202963895670362
53,0.18654783277341522,-9.45995664977339,-0.1689684077758516,0.0006390075402802101,-0.0004157690642400459,0.0010692783354702
54,0.16788324948583996,-9.410610574212544,-0.17611185512857638,0.00018248654518031483,-0.000495549577587434,0.0010640725207990433
55,0.13899607806271772,-9.45636923597496,-0.1869266409268557,0.0010174808017704424,0.0020911268589078225,0.0010651569359961866
56,0.16707931562206346,-9.496818697791083,-0.1938583969805838,0.0010360978520629,0.0013047255790703252,0.0010680989143860011
57,0.15612932787039344,-9.48947157771067,-0.1849397781246614,0.0010361785183032341,0.0004423266471858086,0.0010710810293988805
58,0.16449060121982148,-9.472408483061791,-0.19196494139356912,0.00023172634727656132,0.0004064581018425754,0.0014693730601058792
59,0.19791902165720476,-9.462898331826658,-0.2054843626277971,-0.0006710287321807334,0.0006684858097929096,0.0021109640194872407
60,0.1910644386076498,-9.449618403596586,-0.1619973431067162,0.0009996050981339617,-0.0010572160543268856,0.002136989297223426
61,0.16353198804178382,-9.483694349059787,-0.18982914962371927,0.0010292430719584368,0.0006056097073675361,0.0021315971030280738
62,0.1661400455981108,-9.463431817894877,-0.20561934393617387,0.0010333218530576913,0.00043641990136722084,0.001509202994104726
63,0.18340635603833583,-9.461448759781376,-0.18679694455339785,0.0006369987547118705,0.000415918125328814,0.00024407707374112035
64,0.19108792102005712,-9.48559969234568,-0.14889251956585692,0.0002021186024025649,0.0014870041155414571,-0.0008630230316891629
65,0.1553461665473784,-9.461998418469292,-0.15191311428437296,0.0010316581136959862,0.003207350316375016,-1.0133459486490071e-05
66,0.20606469622397575,-9.484958842228657,-0.19579521500491703,0.00021354350902832712,0.0015251579597029643,0.0008347340960770593
67,0.16153676426011743,-9.477016946291396,-0.19072594814962499,0.0006090749529640918,0.0010711039756180238,0.0010637790921476987
68,0.16215023942668225,-9.463601395743174,-0.18129348411686763,0.0010388249583877895,0.001072789202369749,0.0006540760486482638
69,0.21006346970618006,-9.457858761453076,-0.18513997858636067,0.0008427581693105764,0.0008693504080540652,7.114103259531085e-06
70,0.1444553176604447,-9.457387685675192,-0.18714616970897854,7.602545575044356e-06,7.842434922133356e-06,6.417652919389853e-08
71,0.17102681596801028,-9.463711634710613,-0.19939135322654075,-5.485001521829013e-06,-4.112997871696912e-06,0.0008410968319162547
72,0.14940137446912283,-9.461718453078479,-0.19562241908622024,0.0006127625720074252,0.0006340449576462113,0.0010653341991766195
73,0.14331342158454885,-9.449766827674924,-0.18405582817037697,0.0010361595012281246,0.000645637291049342,0.0010703779954537684
74,0.17336184341485664,-9.44690768193535,-0.17479101660290908,0.0010348872934617531,-0.00021755661586366165,0.0012808124888174866
75,0.21155166326237415,-9.494612742261205,-0.17964095049722445,0.0010294273506147769,-0.001083890748974351,0.002133414663476356
76,0.15618108084822813,-9.511502766663568,-0.1575149440446302,-0.0014486855592544252,-0.0010735918377273665,-0.00042770912578643646
77,0.19172142026674502,-9.477916976484726,-0.1862319472803718,-0.0014563253666797882,-0.00042693137499423035,-0.0010761790918033184
78,0.1879210919378623,-9.455635599732602,-0.188964732510603,-0.00021075764769344044,1.2249338692495027e-06,-0.00021816329458187382
79,0.14355378770867697,-9.463022895235058,-0.17029769540666032,0.0010362404990475011,-0.0002203065367113889,0.0010733723684679265
80,0.19153586905555806,-9.47333817140111,-0.21921125739025407,0.0010363211447583203,-0.0010824859893073101,0.0010763537245368192
81,0.23217647836642025,-9.449725208839823,-0.1866294588842995,-0.000628079035223001,-0.0002154544267804978,0.00020481049848471855
82,0.19709646239629308,-9.463792519200247,-0.15955517609249892,-0.0004244195353021927,-5.900559783190825e-06,0.0012700599204451498
83,0.13711974796043408,-9.485191813137897,-0.15392978492898896,-0.0004302652263921598,0.0008577595413877027,0.0016868244457138204
84,0.10499991517202677,-9.49421987835171,-0.16914862922177026,-0.0006263594114189715,0.0019326891976664574,0.000831282649795348
85,0.15444887964242757,-9.481972735492874,-0.18831702307108036,0.0010396745279422676,0.0010690415490646873,1.217967798349947e-05
86,0.20341018713924497,-9.486384541728928,-0.17889457406436732,0.00019906415891002223,-0.0006587966597290355,0.0008569349082585884
87,0.17843142774877702,-9.485248104491308,-0.14487100660902136,0.0006279212549047278,0.0002227005283499585,0.0004259632140845227
88,0.1480574821906951,-9.471100990156433,-0.1541862229167092,0.001040231038600716,0.0010738435694287373,0.0004384608646216005
89,0.153451926400008,-9.446390527210147,-0.19778510858369533,0.0006078024618525726,0.0008503613087351848,0.0008461367526831051
90,0.2088731673471986,-9.423566459733816,-0.19581740942861484,-0.0010431799354225343,8.039103899510058e-07,-5.4308717018677324e-06
91,0.15942224677541306,-9.496387801784852,-0.1932461093138524,-0.0010487153264301088,-3.3468726759460415e-06,0.0008433929292346873
92,0.17913320196444987,-9.486622100897561,-0.183646884192324,0.0008493086213763373,-9.030965466896847e-06,0.0017156840395349947
93,0.18600459456386215,-9.478335758839092,-0.1654797968453147,0.0016494170286276025,-9.586493325365417e-06,0.0017073745937242041
94,0.1669953092729094,-9.490751413627216,-0.1517178971768004,0.0008162430449917602,-6.933894967766701e-06,0.0012922981539744381
95,0.1685237869711955,-9.486978274750667,-0.1674766980458665,-1.3761340841290087e-05,-2.1293213742804283e-05,0.0021104263288235204
96,0.1366989370982602,-9.495843128563008,-0.17785898859136187,-8.140106572581116e-06,-0.0008793179858240181,0.001263786866302333
97,0.1516210558519922,-9.475009238754728,-0.15654606546227873,0.0006352616590094854,0.0002377884110925754,0.00041858661609303535
98,0.16965302953088163,-9.466779571768116,-0.1582447544550843,0.0006100692233374621,0.0015185151678468439,0.00043917120465221355
99,0.17712746372057764,-9.469784784874921,-0.18166372063319308,-0.00022779536408374903,0.0019211194744362494,0.000824989464914591
100,0.18445911952486013,-9.447801159114954,-0.1794316433118446,-0.0010290504633581562,0.0010628017052923774,-1.5197547291390132e-06
101,0.16291614422626044,-9.463057833309769,-0.16062642992629658,-0.00019926893920849546,0.00019579999016664147,0.0008603166850754986
102,0.1511521187915046,-9.471887214804202,-0.17297378135041006,0.000638893092781732,0.0006598021876901307,0.00041346510948040777
103,0.15047491110229422,-9.45655050018121,-0.16111998650541665,0.0006064398813813291,0.0010741378846075744,0.0004443700427021299
104,0.15957988228370076,-9.432074910366314,-0.14113277949303837,0.00022032575143955186,0.0008394341186245803,0.0008304030920505588
105,0.1737387153451493,-9.438813867828115,-0.18219977668887838,0.0010071670905040673,-8.988713444257664e-07,3.0313089108988247e-05
106,0.14142425239724987,-9.461452914175561,-0.18019830796378491,-0.0006688408393963699,-3.706695482469908e-06,0.0008590743244471016
107,0.1594171942068393,-9.451772483061173,-0.17861085061432147,-0.00041340313943714717,0.00065479728212055,0.002365156922240387
108,0.16735218502769664,-9.46066260518256,-0.18202893036332274,-0.00045245460453704643,0.0015178251326360465,0.0022813880700796167
109,0.17015054514618785,-9.481852109138405,-0.1931643363167572,-0.000360108133312528,0.0021508189300510363,0.0008151941337701808
110,0.21667143754175147,-9.468634986379351,-0.21067159648265196,0.002065458528113506,0.0021083630304068713,1.7512448810590175e-05
111,0.17113742156970815,-9.477012267877711,-0.1424426188073431,0.0012295993664045318,0.00038386667700453475,1.343725849962424e-05
112,0.15793645962234762,-9.482703950129062,-0.1448877196074679,0.000385619020275412,-6.769590759899527e-06,0.0013242856939862091
113,0.14962471453030554,-9.495418190809517,-0.17205334958440377,0.0004300621423255583,0.0004467047648031641,0.001676316998614645
114,0.1442169470080352,-9.50260300451111,-0.1895320984962634,0.0008045724281968743,0.0008314719543125367,0.0008300332804499281
115,0.15836419640256474,-9.477747720026105,-0.17255799392316626,-2.5384487233589442e-05,-1.0504675885282867e-07,2.5324733182360026e-05
116,0.23376460994766357,-9.460506207226205,-0.1809603220117863,-0.0008661561476875954,-3.584350360823423e-06,0.0008641172513196943
117,0.19211189057365766,-9.431003127421002,-0.17011673690389903,-0.0004017563619074799,-0.0006817224427419832,0.0017215363000888761
118,0.14245318812196348,-9.440485975611622,-0.18355053193573953,-1.0825428793993836e-05,-0.0006259413950813229,0.0016710212738652592
119,0.1207907430934986,-9.469237713977895,-0.19755925933777535,-6.958938896723987e-06,0.00048384348148362193,0.0010584122129108577
120,0.11559218829016776,-9.452989753411536,-0.14942670916354847,-7.111939943142177e-06,0.002119570378967164,0.0010527559840385657
121,0.1293013543892774,-9.450033816498662,-0.16475381160739674,-7.031218508593449e-06,0.0012565813681997581,0.0010557401395028358
122,0.17378366332481884,-9.45827614828241,-0.2049113481913607,-2.601679186374901e-06,0.00039748944722688346,0.0003918440697740888
123,0.18829374066520457,-9.455591858017685,-0.21897390100953215,0.0004512766768645189,1.8674851224792605e-06,-0.00045021438990871534
124,0.18871353503451638,-9.44748872034522,-0.21631814454215476,0.0010500932957243222,-0.0004922143828284969,-0.0010458580127339434
125,0.23191800737490575,-9.455761203798229,-0.23914347321965895,0.0010173003407060509,-0.002083378500689546,-0.0009746679201395906
126,0.169247533778983,-9.462176212707849,-0.17933061723099894,0.00017083192209905854,-0.00036584012399424416,0.0007069828874010229
127,0.1491252793848814,-9.48528888674114,-0.1616598405393801,-1.5663393940287318e-05,-1.1745394360158643e-05,0.0024019010692706397
128,0.17289902158679687,-9.481153175164923,-0.16539572364805616,0.000437199553964904,-1.1425908329048141e-05,0.002267692527315033
129,0.21443695714408087,-9.461216467429038,-0.1725711371134857,0.0010378378896715491,-4.8097110660178495e-06,0.0008246061698737726
130,0.24177055172162223,-9.468116093428616,-0.166210301961791,0.0009705788685959906,-9.601677683918013e-07,4.840542593293403e-05
131,0.4836394107559463,-9.475418161688575,-0.1398905568592457,-0.0007054290613047659,-3.7679919064364776e-06,0.0008771666612712052
132,0.7181184154896023,-9.441690664670805,-0.18827031582652592,-0.0003910157907603815,0.0006767204924783199,0.0017280987024874232
133,0.9856709085122076,-9.406723642416502,-0.18933674048872817,0.0008885900962606363,0.0015296226027325427,0.0035158315377372164
134,1.3436516827761347,-9.411503424560838,-0.16646212771405178,0.0015420577395352177,0.00211629108705087,0.007579467273195105
135,1.8466939257521233,-9.488737928242974,-0.21723921475342056,-6.11620284202003e-05,0.0020378559425913074,0.015445526446686272
136,2.344140809919815,-9.500386127850016,-0.24222775650367281,0.0006911033071459517,0.0011119181165759095,0.02819408696961261
137,2.8810865122269007,-9.484123887397672,-0.27711917083170046,0.0007585357009234771,0.00017389843640454815,0.04364725426433247
138,3.4570588420297135,-9.41564953715421,-0.2514941997660017,0.0010976524749072548,0.0015917979467910239,0.06211321795654025
139,4.2670886442729214,-9.374811201979565,-0.18762648224008308,0.0017802868038428463,0.004407104388406633,0.08555588282638397
140,5.53092759104726,-9.47771199334762,-0.17145417090675646,0.002325685824013487,0.005889864933289249,0.1166548200997983
141,6.163997296981074,-9.46422865971498,-0.4594753721776213,0.001224688415599922,0.0056912520562034715,0.157397895473793
142,7.218986820890567,-9.483797580853423,-0.566980692117452,0.0020784463455304405,0.003369737327592913,0.207037014981495
143,8.042298709494133,-9.208138403854516,-0.46481127625603935,0.002445518058372504,0.0028881886869022736,0.26495491059958876
144,8.868697931006324,-8.967741392679228,-0.22296746221769168,0.003032337860679999,0.00270717457364058,0.3314243022159778
145,10.276438414315443,-9.342833315399877,0.003901304965383141,0.005883703369035742,-0.0009184592086313619,0.4067171568010633
146,11.030442549766573,-9.383915759465673,-0.2716179052610228,0.008677293860172294,-0.0013321746141792233,0.49081157010302995
147,8.831556458464341,-9.373106065639567,-0.1264472902724825,0.00936206053172951,-0.0025041532113730045,0.587910059341874
148,4.352005392406857,-9.158355481882205,0.0542465483377266,0.008589492626765378,-0.005799209321038734,0.6914242371475776
149,-0.3724151496761285,-8.944073859572827,0.131135382839575,0.007850809770150947,-0.011422051691878293,0.7957300446216059
150,-2.8481096718368177,-9.042064462465031,0.06711710162148436,0.00885591121741967,-0.018679560696143675,0.8902332385216988
151,-5.062139996842779,-8.733836240282281,-0.3620226954620252,0.009652873380425038,-0.023883991283884912,0.8962045241815646
152,-7.139036089279767,-8.708718770108822,-0.40206539314688117,0.0065957351484649,-0.021221862045348823,0.86901505178266
153,-7.99952789155234,-8.661053092466462,-0.1998790552928682,0.006024298721180037,-0.015702614553548176,0.8207929892034109
154,-6.853867104265301,-8.620597833809287,0.0512239614204945,0.00919198894747738,-0.009602654819051164,0.7520903708235973
155,-3.406980130201825,-8.782724859055474,0.14657171990773143,0.014404143313264771,-0.004108706636692526,0.6631066127509788
156,-0.9931876706085958,-9.480498057660903,0.1739529148649664,0.013977517813859386,-0.0003512751597709025,0.6002565392207395
157,-0.08159775192304533,-9.615818756884842,0.2203587379672235,0.012129394758214167,0.002659481101373438,0.5464004986106349
158,1.2494667872093705,-9.243593833607186,-0.0826952519571533,0.0069977724767619435,0.002479264130326224,0.512849180029298
159,2.9766997821384256,-8.823837549134199,-0.5897430923201739,0.0011137900484091787,0.003221014770268599,0.5067642451792946
160,4.195770350236015,-8.94904395861112,-0.9139562356991304,-0.0013202606323139267,0.009665703312843762,0.5312310291649067
161,3.820726734810373,-9.406166036820762,-0.6765192969393728,-0.000783126110540266,-4.557156698196236e-05,0.5771223042780282
162,2.872363117635044,-9.3621158463813,-0.3991690652767796,0.003876120303492265,-0.004092119286742077,0.6216490464017913
163,0.7358723485321182,-9.370242065488668,-0.055326720194534704,0.009442462096983394,-0.005909089278787689,0.6649039757196586
164,-1.7321488580936473,-9.39827991175228,0.2410188160296805,0.014218995324619262,-0.00752900997198787,0.7052292360933492
165,-3.1776464455056637,-9.197025366479494,0.32383881820290045,0.01691233426308808,-0.009899561338004688,0.7386111313357886
166,-4.029573195950239,-8.785550841122177,0.11760560264979314,0.014377917029896476,-0.007330956165935023,0.74281699722308
167,-2.628929284481912,-8.999126884526316,-0.19555905059237091,0.00976717721462746,-0.010458878013053383,0.7484188325083162
168,-2.8294445287454826,-9.134040897412673,-0.34978173875287,0.00627758143569501,-0.013714996251670244,0.7362349441103826
169,-3.925489020698943,-8.937668366604886,-0.39978252190430963,0.0042268500853184605,-0.012214113752812696,0.7082327395390643
170,-3.6572634286660017,-8.432680816215656,-0.4949922051018718,0.0028277351585137955,-0.003380778198421902,0.6764659506870504
171,-2.697621801728328,-8.55142281919682,-0.40885278635721467,0.002092242560666071,-0.0041675525891234225,0.6611760872551938
172,-1.3067642522339524,-9.081662138415394,-0.33907693525952287,0.005628011767472697,-0.002726548163533849,0.6283262963145674
173,-0.47961363737992346,-9.169453243567345,-0.22531140780422954,0.009432888153668741,-0.001921431199241791,0.6110782828732448
174,0.011206719579864216,-8.937095827787992,-0.17959404216116567,0.011646867956336921,-0.002795964609057619,0.6141853069794021
175,0.6647373280847386,-8.842426960771833,-0.3119550803749906,0.011419841298618798,-0.0048802577153696175,0.6278680925849954
176,0.09335886959691066,-8.911970692723129,-0.13111169909239376,0.00983677336418901,-0.0004999657303235675,0.6142479423179655
177,-0.2731136979456153,-9.037224327055492,-0.11950995304235926,0.008037944460553392,-0.0020346159472696104,0.6339162948820042
178,-1.4207030450657947,-8.99032339253446,-0.14434437012820966,0.006703967565279133,-0.005239327844771619,0.6572539096432823
179,-2.603727311271123,-8.804025663901934,-0.23164065145583734,0.006317552994228289,-0.007035205922997072,0.6744899081445764
180,-2.6168454845799816,-8.646053422802307,-0.43149313563599484,0.007018623815456474,-0.005432388647555255,0.6839066227477085
181,-1.7291769796626333,-8.977823945230497,-0.5556698743958295,0.006952102809280129,-0.0046192207259252265,0.6940919152564439
182,-2.7823068106409616,-9.292896515746063,-0.22571050970411735,0.006361804366356167,-0.0022281863283365863,0.6772257951209819
183,-3.0321983522016502,-9.096905272143083,-0.06554310920480401,0.007485760268881052,-0.005238007439463404,0.6786842427266226
184,-2.723858399558227,-8.730933709689122,-0.06899166386519709,0.009704551447865492,-0.00774067936781424,0.679217794949968
185,-2.7422625738148305,-8.745489086120527,-0.026385954943829355,0.01126378054907723,-0.002425939085611498,0.6495155726611892
186,-0.9267772918327419,-8.992352753056492,0.16564271341685147,0.009565164256755253,-0.005894880677520221,0.6537523449225531
187,-1.3018377542196462,-9.02980876749649,0.03984161330369004,0.007284392662058348,-0.0041868027609638005,0.6393669114916836
188,-1.28612407991821,-8.769158900428682,-0.06656568624023709,0.005304762007403234,-0.0041341989490363325,0.6346145841971681
189,-1.2714317065197254,-8.534076750856304,-0.07763087240532801,0.00391878591181074,-0.004968558901181556,0.6350429944827395
190,-2.2332732986717634,-8.69992824040381,-0.0339621014259366,0.0034422214910730343,-0.004158487693726808,0.6290542582716118
191,-2.5495633451011868,-9.00748495686625,-0.2160417401031826,0.005937643776804972,-0.004168804328747525,0.6307820091409273
192,-2.5445444462232,-8.645537250842766,-0.2441729274364985,0.007664261387305605,-0.0049550148319095644,0.6418504020550162
193,-2.34321894044159,-8.454447838654705,-0.16675240695260857,0.00878219405595776,-0.005858399479850814,0.6500346905562053
194,-1.7868706737810955,-8.454532338136039,-0.07217055090876383,0.009592263869817904,-0.006439502004786794,0.6539558305558862
195,-1.0691628643985478,-8.507316060511835,-0.0439939107708704,0.010164683059370265,-0.006276917595612244,0.6559147627929753
196,-3.298371194728766,-9.121953135584064,-0.024142331298183186,0.008465582741335765,-0.004571163355602266,0.6601336413191353
197,-3.26306927681415,-8.526659527963131,0.17773988704323956,0.007525382895206337,-0.005033533155142745,0.6571426368973927
198,-3.3751490781917894,-8.304147587002321,0.1992819247396529,0.0067577276572937835,-0.003767182912709347,0.6467477741156532
199,-2.9746220975852014,-8.399207166634026,0.012280653446674228,0.006241312699726864,-0.003903863732470118,0.6431079280569502
200,-1.358294602158872,-8.41556045868363,-0.25916203792056475,0.006072906624679186,-0.008058318462949535,0.6556178989978583
201,-2.995560724852357,-8.830777774599877,-0.18104425654876544,0.005358211933304353,-0.0027924194670986163,0.6369110616336815
202,-3.2392543354580416,-8.543574908618174,-0.06204139580997001,0.006604538954164976,-0.005781763213463783,0.6465856917472118
203,-3.0322536566234897,-8.599298153304849,-0.033361309432644794,0.007802130443553267,-0.005361328607696743,0.6414611116259212
204,-2.719232543846265,-8.88222900265153,-0.10748680972361016,0.007783914293611653,-0.003421768847308074,0.6348608622860326
205,-2.5325826707113945,-9.000386664416906,-0.22978712387689165,0.006308955001672723,-0.004340759462825198,0.6466765926006653
206,-2.8865729239134037,-8.82979951156932,-0.16198248978339913,0.007160883363126849,-0.0051919637064099765,0.6441423396184655
207,-3.6750406563736244,-8.460964644468822,-0.18354666494309074,0.0066142953140195,-0.003787965254806171,0.6357427203637079
208,-3.3275950932945926,-8.359089720306088,-0.2401227899504938,0.006745733660697428,-0.005791840064296173,0.6440491211620001
209,-2.8233402034822106,-8.566409533474687,-0.2836446926824224,0.007830308335686632,-0.007022172422614448,0.6522211078005978
210,-3.4065380977505213,-8.91113198175245,-0.2662954024642664,0.00918551356987166,-0.003249601569152008,0.6425472558538862
211,-4.067026135882624,-8.694400842226697,-0.131944694087418,0.007465292762520751,-0.004147802905310991,0.650171182888093
212,-4.579837261204931,-8.8853371046446,-0.29385166983982824,0.006634184212180469,-0.002685610833675414,0.632114299710682
213,-7.462169831857123,-9.13774326385308,-0.41355361387342143,0.006276668051545434,-0.0068252280615817545,0.637738838819421
214,-12.030459600998224,-8.922286001116609,-0.3159278109840069,0.005653265092148361,-0.012382868734290385,0.6395196071038852
215,-16.65196978547955,-8.044195559879665,0.013677350791268129,0.004731971587359832,-0.01360881451753638,0.5998115941335422
216,-19.203833132213536,-8.244238296714606,-0.016239921752508393,0.007736693865561288,-0.012374176560953947,0.5234254427375518
217,-18.40533493578315,-8.582513650399346,0.044383298090926566,0.009621310966243867,-0.007893962372796187,0.3961258047406877
218,-16.721368449162373,-8.488270746895981,0.1781721366582819,0.00889552534273197,-0.0022752811173781832,0.238467010763243
219,-14.665779361983185,-8.18776718898678,0.37045112751173503,0.005385565424790266,0.0024270112049596167,0.07413403693005856
220,-12.47474995297438,-8.13845064841218,0.5255561316856443,7.397821854103535e-05,0.005090118400311364,-0.07388923740133149
221,-11.010317245744492,-9.018539668259542,0.14392622868082403,-0.002492926726798416,0.00912358615205408,-0.19280612195954638
222,-8.80174904975369,-8.98454182704111,-0.43960872464538525,-0.005981886479019653,0.008496004924217395,-0.2820685204377647
223,-8.331336147168887,-8.630238797409177,-0.5092923989965691,-0.008728337241026868,0.006526419690027665,-0.3415689221069325
224,-9.149185044446227,-8.38665530571565,-0.18354760233145645,-0.009047335290995728,0.004169487804699711,-0.38858404935926455
225,-10.16369053902486,-8.510216811338463,0.18007768067870844,-0.006005987477599049,0.002258223045018554,-0.43819125374508583
226,-10.510826209177276,-8.597890671716984,0.01987350743577075,-0.001602094312306073,0.00328726944743719,-0.4729546123006987
227,-11.435285329490586,-8.964554383351159,-0.155731292204363,1.1277268211258725e-06,0.00441773132076485,-0.5278651239852498
228,-9.96111673645747,-8.425003402823078,-0.057764316977206534,-0.0013598513951410315,0.004518963959476624,-0.5936236088096478
229,-6.876609281993019,-7.97866256883564,0.04973648716189735,-0.004552727419832079,0.004990503174356672,-0.6651043121696869
230,-3.6223052063704406,-8.61482799663686,-0.09952269306587075,-0.007940934624069421,0.007628137745939061,-0.7359570842843121
231,-0.8089884776031591,-9.360191402326299,-0.2874760440312225,-0.009247326731388521,0.01394037845630804,-0.7920347485398063
232,-0.10147432865288195,-8.833640998329958,-0.38685723140080486,-0.008450518064708605,0.02093049023052558,-0.8316185208686001
233,1.1284351805021855,-8.586623591633643,-0.37940920497582786,-0.009853413175603464,0.015731483427961948,-0.8125607636967421
234,2.250852111227167,-8.71338782509056,-0.36095855029733914,-0.01174543077245867,0.008694973116830039,-0.7591353051642359
235,2.0813453032592615,-9.009277878144339,-0.3879543941378674,-0.011644952984728198,0.009574871277284637,-0.7053899203523026
236,-0.45778810352582755,-9.231453413688893,-0.25268297493243824,-0.00855767199163,0.006793854022554486,-0.6662853798795336
237,-2.6134144173799223,-8.718170042755453,0.03356669943322667,-0.006293729672373637,0.002422270073208544,-0.6143949138854984
238,-3.4622081771691278,-8.479780463887852,0.31421740756364896,-0.003494002991404086,-0.003170425807225526,-0.5776208101043976
239,-3.769399492456486,-8.504361283080907,0.4527844219363745,-0.0015473167090349362,-0.0035897595460174896,-0.5626227822673067
240,-4.347933512145204,-8.591769914884766,0.31334234474252987,-0.0015164482054144432,0.0036153968324124496,-0.5674841493911641
241,-4.904133965309096,-8.555543896124087,-0.2990826860379923,-0.0014609174112660706,0.0019325574502260252,-0.5759688157413531
242,-5.462514264774854,-8.848280779638342,-0.14576430844742796,-0.004928634916633905,0.005007599970161908,-0.6147541289971438
243,-5.2371681388427564,-8.673466654976757,0.1130052890082803,-0.006763440433592944,0.005841674407479669,-0.6452494273190881
244,-4.3818953088760395,-8.28386069274826,0.27321953800419574,-0.00776714998948445,0.005099622315830102,-0.6696999024272068
245,-3.1007904881866755,-8.174078069973724,0.2030290687538276,-0.00927158599370396,0.004734477460632628,-0.6951893585249636
246,-1.050780543294819,-9.094811139925774,-0.27371672677520986,-0.010776900848520708,0.006585544184989075,-0.7206864861904658
247,-0.6204520578649646,-8.953904557157102,-0.4732713736514672,-0.010925345504780836,0.006787703661221743,-0.7248884945121905
248,-0.09592733795896086,-8.611839401988863,-0.4326576504471908,-0.012054014111655941,0.006751287530371653,-0.7172770707152198
249,-0.03520880987531713,-8.563816623218875,-0.398666186488415,-0.012153987872710603,0.006000856328606854,-0.7038650507460247
250,-0.728029085879748,-9.038925152933077,-0.5211421397512321,-0.009375953679469367,0.004837688304331227,-0.6886384850852678
251,-0.3392763043550391,-9.588287271167701,-0.49139619507751536,-0.004490554735307393,0.007325514687303486,-0.6690594958905244
252,-0.7605737247468205,-9.3178309780239,-0.13033834907905562,-0.0018485936984627914,0.005945669830822273,-0.6510213563546754
253,-1.482200299300337,-8.739907310553745,-0.027406479348464505,-0.0021605395703106507,0.005266372025101671,-0.6354003346450268
254,-2.096413148997617,-8.47600692491655,-0.024938758768478682,-0.004589671432219781,0.0048563091279787965,-0.6220156216293959
255,-2.498931973821303,-8.824423448896972,0.026929474481358514,-0.007720351886376593,0.004488972319300924,-0.6153420404559655
256,-3.5496416327032048,-9.011690783968126,-0.1304401460564241,-0.00924710988907712,0.007185610836044058,-0.6374460478370947
257,-3.0931545152826923,-8.809118326512461,-0.18908441488713526,-0.010204354992902946,0.0027295685343421737,-0.6311327036321982
258,-2.2927391962233052,-8.629916780387251,-0.3884871114483269,-0.010445255165795139,0.0026722083764708655,-0.6384704380244308
259,-1.5169413089075434,-8.685824978022918,-0.5494764891691506,-0.00965097430318139,0.004996517455424492,-0.6563242300458975
260,-1.0532222077115267,-9.026134989692153,-0.4875716488018703,-0.007742004432423784,0.0061241087395524476,-0.6726893351310617
261,-1.313206750519641,-9.313996613387232,-0.15839682460746377,-0.005268492092966134,0.0035098332614110312,-0.6675557481550904
262,-1.809675980958506,-8.99139904396505,-0.050742594946858864,-0.004187155082733838,0.006471898618517863,-0.6817305969897784
263,-0.9846789771094104,-8.770805889358378,0.05156813036284669,-0.0034254035460310897,0.005319150147309591,-0.6704325328519082
264,-0.4372458207877152,-8.758407984700414,0.12117089252717067,-0.003652169861491806,0.005734194438437295,-0.6651596629465591
265,-1.1389695408880776,-8.964339626813022,0.1270391962718861,-0.005356282790516941,0.00990263210028508,-0.6807581796531129
266,-1.0513288004687793,-9.382944105462153,0.11243701519997995,-0.008039390477035613,0.0037349117495111914,-0.6535978730404332
267,-1.642607911215735,-9.164060296163186,-0.258944805053115,-0.009057097221430832,0.004753075049271888,-0.6481314657109121
268,-1.3985392728104409,-9.006607518992851,-0.21994693292273054,-0.008245004199705166,0.005322076144063454,-0.6458541275399499
269,-1.1694055322475658,-8.976222278574046,-0.06152022040537736,-0.006952352936804079,0.004582226463105315,-0.6409709566454571
270,-1.668961741087924,-9.05602894227939,-0.015705064254302556,-0.006014783781426008,0.003543062217204624,-0.6354111567385498
271,-2.4802506063103436,-9.229938068387883,0.21910437508120628,-0.004255181949658745,0.0061954946625892475,-0.6489844005071098
272,-1.8939902717391612,-8.88078765024416,0.039388052346176414,-0.004224996188859591,0.00395744092622125,-0.632207998666661
273,-1.3450681325912877,-8.85167970087872,-0.14546792357917437,-0.005276226246291986,0.006026322845377205,-0.6421801575986028
274,-0.5816687087836708,-9.07154613603575,-0.23271027033922498,-0.006172901283463331,0.007505778613515288,-0.6536616689587215
275,0.26182092423781733,-9.371877921555136,-0.2149514743830004,-0.0063532347459109234,0.005036726391671896,-0.6477283514027995
276,-0.5122573472868236,-9.617596983832795,-0.2361342341862481,-0.007199380430227095,0.0033039278416408095,-0.6460347695721926
277,0.26758022766169104,-9.243932604707837,-0.5245408416584386,-0.0080204023889848,0.005562071011116904,-0.6482644859525237
278,-0.15134395516489868,-9.05494877094407,-0.44024947007535,-0.008225711897499979,0.007041689458489662,-0.6588083997853953
279,-0.9201501739180151,-9.061210630623716,-0.23926377226001902,-0.007897537344514212,0.006059921320696646,-0.6549100722559169
280,-1.1173831211955632,-9.183974101727069,-0.1253428562527027,-0.007051573945645816,0.0037105631527985967,-0.6341614434454211
281,-0.5440462104078004,-9.34711258502226,0.06899201908625358,-0.005264365409451215,0.007245936761006127,-0.651983381610038
282,-0.6634547342897685,-9.075285897022374,0.1323757270301913,-0.005935195772445318,0.005891705542411322,-0.6486029841018985
283,0.014440334618924133,-9.199375186158122,-0.0930208420779633,-0.00736880296034516,0.004726239546408198,-0.643521319473024
284,0.08911327736066438,-9.39532111412417,-0.2718074687071879,-0.008334672460906247,0.00533204575524854,-0.6420708791478753
285,-0.8312043545725261,-9.367240510739618,-0.2221294054906307,-0.00788469989582749,0.006996403103953008,-0.6424344697580375
286,-0.10070164671997063,-9.135801266124103,-0.22813633095019145,-0.005466557059096415,0.004340608102805864,-0.6288102537197401
287,-0.6229330775469716,-8.950953840511326,-0.055767574159259675,-0.005147727436525184,0.008275413930112854,-0.6507588559715209
288,-0.34849496944723185,-8.997757957631979,-0.2482167320985659,-0.005801109780295587,0.00547895475335873,-0.6378053251884939
289,-0.06981924425586315,-9.209860654120643,-0.40047627236692407,-0.007041278227164779,0.0038798370887313093,-0.6310850946686378
290,-0.36977594157115623,-9.39203792520276,-0.2798308923972547,-0.008282269041664151,0.007338839696643459,-0.6501416962139066
291,-0.8241368751415971,-9.098008273756374,-0.21820508055678714,-0.008320946528106955,0.006447596967688558,-0.6441953542159753
292,0.5595771046680318,-9.077262610976367,-0.17244506376506885,-0.006023410381311017,0.004744478882813534,-0.6374252211775087
293,0.6958360174353235,-9.106571285385687,-0.11681431575724507,-0.005206666532408867,0.005994401462225357,-0.6416810325535114
294,2.235486005710221,-9.110310988411209,-0.29241863816123775,-0.0063166264659448215,0.006312715515483899,-0.6391812201622588
295,5.996575417406433,-9.207126259501688,-0.6943267955745525,-0.008579682204085382,0.007553170773455386,-0.6285409493879248
296,7.981956436402488,-9.93012405671079,-0.7536134339729254,-0.009283726720768461,0.02576411418218734,-0.6489909562905953
297,12.359411370504116,-9.261846753356764,-0.6257890843997338,-0.0074368500629304665,0.014396185968183178,-0.579264674151424
298,14.421024343014455,-8.983452774538257,-0.3376302845253656,-0.006033411811556165,0.011172502915138365,-0.4983983728710033
299,15.047511305015636,-8.987009347346333,-0.13731472406947443,-0.003639837470762628,0.009292262836559274,-0.3833502248503202
300,14.811960726937267,-9.190434189554386,-0.2250845604339703,-0.00043581877186227107,0.0035243479700452236,-0.22872322480999607
301,12.665007393201941,-9.88670548083846,-0.7005047376601943,-0.0005849387472185479,-0.001527863085065456,-0.07757017533260559
302,7.082665012048924,-9.881402484091556,-0.5254016300068647,0.0008302462871989274,-0.0041489755539044675,0.07519394429221896
303,2.7111590624240574,-9.6634508711714,-0.28034182538681085,0.002428385595692801,-0.009548959079783415,0.21451594277644204
304,-2.499215523347927,-9.1723769853282,-0.0863573064100116,0.004716030483664955,-0.017949967194617444,0.30518150284976625
305,-8.512133860726014,-8.69170042159521,-0.03890441398179443,0.006378808641516686,-0.029976402212298137,0.33677471191762903
306,-10.3261503034832,-9.266359203325129,-0.2622142108659648,0.002153702937427646,-0.048121038777965364,0.34442897661979655
307,-10.558283244800908,-9.683022740784889,-0.08468536228422101,0.0018609814102564031,-0.024846752760682142,0.23376148019001508
308,-9.131242121153331,-9.345309268775871,0.08493024790847965,0.0035852111298931844,-0.016694011772683048,0.10946540815431126
309,-6.602314419529345,-9.083895782057958,0.16786970640670992,0.0037788272390525753,-0.013398975080551498,-0.009512067825565046
310,-3.460343217017233,-9.28876755969936,0.12841396555926798,0.0014536540355647803,-0.007021229693494679,-0.11415994492275397
311,0.058995565854193466,-9.40620401118069,-0.039508759434550234,0.000358518545328785,-0.0014142137908462052,-0.20249709319821105
312,3.2801601647795082,-9.245214695666599,-0.25271284142758665,-0.0019004027434756621,-0.0018267963402355718,-0.23427069415640894
313,4.726097692014346,-9.136286596441352,-0.2023760577921216,-0.004436709457143169,0.0003204708715325279,-0.22976761149561659
314,5.1641867927349265,-9.180692058997614,-0.1303077627093834,-0.006028003245700705,-0.001873631302839112,-0.19568861089466938
315,5.163958293063317,-9.332054668450194,-0.21564465033239938,-0.0055363654588505935,-0.011478060195311786,-0.1397012619421833
316,4.6914816757190545,-9.313019583487254,-0.48782330303353344,-0.00180674632953349,-0.023891464066921084,-0.07083788068001655
317,3.4369187910989822,-9.383580511096678,-0.38205531604976517,0.002695118461506039,-0.03137872025677574,0.002076589814520271
318,1.475082797609051,-9.295713210182216,-0.09161071733150179,0.005530910792471692,-0.038584599317879914,0.06435129918710025
319,-0.7783548515222157,-9.25519520867748,0.07488131485344927,0.006229626030157167,-0.04608792772383087,0.1069532196225036
320,-2.5738779349129435,-9.310286215094294,-0.11225876776778798,0.004740319987415052,-0.05412689715918292,0.1269678427984754
321,-2.578284452587657,-9.213869357391733,-0.7720180362464102,0.001382785888204232,-0.06276008049977931,0.12950479582817648
322,-2.8676155519199265,-9.467589539177983,-0.5272651918738708,-0.00024369581615448643,-0.06384657721424168,0.11246776014426461
323,-3.2780949658381955,-9.48875577340009,-0.263856340951918,7.843972140001478e-05,-0.05841585852423164,0.08012543010230982
324,-3.3464211498718317,-9.420042072131226,0.1105803205370469,0.0003822028203486163,-0.0540625622948438,0.043083173830500844
325,-2.6573460245633513,-9.327635478124197,0.3775571564883784,-4.0943416549156724e-05,-0.053702636565885115,0.0072338289040327
326,-0.833537320307002,-9.103719595089679,-0.258897837630796,0.00019706012166920044,-0.05266192667206907,-0.029278140104147497
327,0.07257250159140952,-9.172889813247004,-0.004738659153185373,-0.0004932720525563743,-0.05420782035153206,-0.046952764088242935
328,0.10785839538398415,-9.456576799724726,-0.1295605734092817,-0.0012657292573217296,-0.05588471115463853,-0.05664502108750527
329,0.7624395671155055,-9.607310387069834,-0.405562832213772,-0.0020930790719727106,-0.05800563246706822,-0.05789064789905038
330,2.1585932084439694,-9.45460546230737,-0.6191815698914942,-0.0024247134080398127,-0.06043682281070977,-0.051311205183824656
331,2.3152693924337933,-9.089543683397382,-0.6592726087732604,-0.0008308063850740836,-0.06222064796059594,-0.03939924622097078
332,0.834625557517205,-9.328972429983468,-0.3416216671086961,-0.0008937194069725093,-0.06653933089481952,-0.02173801942648539
333,0.5592968465918412,-9.069767497200377,-0.16739082826665724,-0.001013750890020944,-0.06907824757695175,-0.003288216706511939
334,0.5801250403237328,-9.133418850773632,-0.2515382593381335,0.00044984534461887916,-0.07251321716069095,0.013820539212534136
335,0.14357673517724936,-9.6056919921756,-0.4697906029978823,0.002585374347025126,-0.07756705368173397,0.02801437046235874
336,-1.1367614558645955,-9.44966525373145,-0.3791125855568301,0.0008480753707102014,-0.08192724190004665,0.03819828173930822
337,-1.3204759538343758,-9.483868609865182,0.2720868823539054,0.0008237268260985886,-0.08538483071808284,0.0351743543886329
338,-1.3869541125676244,-9.106974360405431,0.15381071859352557,-0.00032804960997882734,-0.08754043629866914,0.026235327405231254
339,-1.289387217225305,-8.94931866247648,-0.2610659322464064,-0.0015426283685095524,-0.09004054384033978,0.017210510097692967
340,-1.0528453584997297,-9.180680039440881,-0.5687080137591656,-0.0021409153925336056,-0.09188972527190965,0.009839699670230354
341,-0.8344779270639361,-9.31884292845075,-0.5174601945622618,-0.0020803331573666264,-0.08839452759728311,0.0004883185832974778
342,-0.3446743243431387,-9.401605839622519,0.17293756118091752,-0.0012072637308456317,-0.08996285746819924,-0.008005807313002166
343,-0.29226650273379456,-9.213625075498781,0.06170123024844419,-0.0003283361698081349,-0.09228443975060382,-0.014621106941780485
344,-0.04205955473519818,-9.329001625314401,-0.32791149036093825,0.0009363546284220119,-0.09319611891152252,-0.018916054627948174
345,0.3910077451343339,-9.68028792015427,-0.41458193190518944,0.001837969893016217,-0.09372728897232305,-0.019292961042331504
346,0.12416861927666445,-9.361110238932081,0.41595398436204245,0.0001229035215430415,-0.09893304571607027,-0.012502957648366413
347,0.27952555101476834,-9.666493872142254,0.005982099643074321,-0.0007334963851136373,-0.09902951708702046,-0.011557785682201642
348,0.1711685477139497,-9.426063571833367,-0.14445516425209262,-0.0021950772211939275,-0.10220060045432924,-0.009470093945957098
349,0.2851273406739227,-9.614625534080192,-0.5550594401944412,-0.0022718573016181328,-0.10569565706950798,-0.005678157638633781
350,0.8622049397033852,-10.139412445446947,-1.0676773890533473,-0.0006415065868434316,-0.10912651975152773,0.0006468427292873609
351,1.8331076673653535,-9.571416743178817,-0.6568197240532099,0.0009630851411808854,-0.11521456298155684,0.010876854068011928
352,0.36728134447841587,-9.400187595148147,-0.6989870551502296,0.0009686187098792253,-0.11786148642829819,0.013535949532468344
353,0.2681870367462984,-9.260434024343516,-0.07677416160756187,-0.0002799198834886549,-0.11982437064969048,0.01607495887839304
354,0.1310374850897834,-9.443589065832551,-0.1705946054175161,-0.0011289598414111145,-0.12070203300294376,0.015295855762275042
355,-0.2926875741904001,-9.737461134201919,-0.8172907751014628,-0.0013096135764448895,-0.12151416371353665,0.012272695078801734
356,0.1538395501805989,-9.341807570542015,-0.049870365818654346,-0.0021508468377397084,-0.12496716975519684,0.013123406401565136
357,-0.22824651529232845,-9.662455231540696,-0.2609918823418582,-0.0013137019980287816,-0.12498706429851561,0.010617154710711722
358,-0.21620446214958802,-9.635912723167676,-0.13597597617911034,-0.0016809202152754327,-0.12687795984415778,0.0049221545913499185
359,-0.510046675250595,-9.689223818754755,0.18285914693052596,-0.0016644022178821049,-0.12944395678776116,0.0006505864174547883
360,-1.030682274042122,-9.754499495221648,0.3984259075614416,-0.0010225376703353118,-0.1318140383378838,-0.0008242226113805663
361,-0.8348370440548419,-9.210854716188985,0.05940853668897356,-0.0010168357146320736,-0.13353505212073247,-0.0016678779184375063
362,-0.586366196655149,-8.746994746827406,-0.5392788279031481,0.0006951146473727773,-0.13179049596428724,-0.009262386076514539
363,0.4614988407510624,-8.788807877646288,-0.8542708860929636,-0.00010628450752221073,-0.13841635080306572,-0.012454692588968403
364,0.175856667116147,-8.917981108010391,-0.6477386122437169,-0.0013914062947765892,-0.14406393223865527,-0.007813621867875301
365,-0.9964379042081543,-8.9164134920846,-0.09112624242004702,-0.0020983120979298085,-0.14649047548035327,0.004279170886530689
366,0.05476136774860069,-8.7773551305617,0.22652531735382914,-0.0021975718195396043,-0.1508769158839354,0.019576893971396996
367,-0.7973624050215081,-9.066704947250923,-0.3816467965687269,-0.0004883807492123257,-0.1499891842574528,0.013659342745362915
368,0.0025729420906416833,-8.99454737764309,-0.7039228510582414,0.0005652373433891488,-0.15300453454577673,0.0122005320583525
369,0.19064609104054447,-8.813248921258786,-0.4286867549491765,0.0005793908910400986,-0.15773676253439153,0.009660606188330794
370,-0.5147669292242792,-8.801994277975618,-0.07904452633561018,-0.0004336208514718351,-0.16201324016137014,0.004568577483121119
371,-0.45210056346832916,-9.259104277128282,-0.9783755885434595,-0.0020650204882368,-0.1637046303309507,-0.0005190684504006
372,0.22601354536255497,-9.252493644201039,-0.5607837742026175,-0.0020650204882368,-0.1637046303309507,-0.0005190684504006
373,0.212824543313925,-9.055559100674502,-0.4906236584443868,-0.0020900403984671118,-0.1643744233639446,0.003329194800398479
374,0.23779507398764846,-8.977807842097308,-0.635877068626817,-0.002100679601100685,-0.16611787643725034,0.004991553560164538
375,0.1382328579372994,-8.889313021918518,-0.5120722483119038,-0.0020722957857073152,-0.16846232797302638,0.0006811514901327287
376,-1.0404452296158475,-8.27412382882571,0.6617586617462958,-0.0019890381139512233,-0.17018781523211904,-0.01098736627274404
377,0.1517626079317212,-9.339265016144614,-0.10189249255369554,-0.0012407980228630994,-0.17887832910323273,0.0026368624741789754
378,-0.1254563267707203,-9.681252814639375,-0.2530454242080491,-0.000422288258651637,-0.18096651187036822,0.00527768541012043
379,-0.06461116175605641,-9.535972426343342,-0.27713288300851807,-1.3436599568603588e-05,-0.18228778048957361,0.005304996017013465
380,0.2934931674964697,-9.48135903656723,-0.500251723561884,-1.1593939591059204e-05,-0.1837459236866347,0.005048413265166057
381,-0.6625470279732186,-10.363177848286611,-1.0795013017625559,2.0500978106528697e-05,-0.18204909078630863,0.0017220435829925491
382,0.07138297140403449,-9.82624905286653,0.23961576936281345,0.0008392871684016432,-0.18378657741761095,0.004285305998392518
383,-0.589917695492589,-9.220254478382216,1.0557549433564015,0.0004117424395247984,-0.18484232577599208,0.002291553442671494
384,-0.5564076622384964,-9.170020235845021,0.48203230405988984,-0.0008714534985278169,-0.18749328538753596,0.005009507956068565
385,0.5968352972639042,-9.544099174136687,-0.8798113106527718,-0.0021223037243430828,-0.19136431636368795,0.00875660254620161
386,1.8442146451289545,-9.57398853270536,-1.1847808545328518,-0.00203313335211156,-0.19384752999750327,-0.0005013732455207994
387,-0.783538728225379,-8.770518417151077,-0.20868884611187594,-0.00032873453409921046,-0.19296097208286764,-0.005578822257268266
388,0.05027642850495728,-8.753814426360309,-0.18848773892719975,-0.0013104012553992132,-0.19812402587929284,0.007594965436212339
389,0.643051302547577,-8.726207524630041,0.0652144024786328,-0.0012498145471784518,-0.20054849283304266,0.008208104404232279
390,0.4055074395756346,-8.776765310442418,0.4168972817334619,4.931289878499021e-05,-0.1994645238018134,-0.004010732091297159
391,1.1482507559374868,-9.632656185538696,-0.2684907284814717,7.265630596761087e-06,-0.20042883983630463,-0.005779183354540761
392,2.2489009484660016,-9.282544183001127,-0.8120063357089045,-0.0024654452221313447,-0.20643879145608615,-0.010882151353983523
393,1.3120173118789706,-9.284219603978197,-1.6262348731208316,-0.0017752006451651693,-0.20983464571217386,-0.006117836201186925
394,0.6580353361909328,-9.368087321568698,-1.6895658059205674,-0.001060326579699906,-0.21429009397187498,0.006438090815681344
395,0.5931184564957251,-9.358769589910212,-1.298088317818865,-0.0011113797892687498,-0.21823333633958192,0.014336347167207558
396,-0.053271948140658276,-9.133234527524008,-1.6452433113170473,-0.0010087595033157746,-0.21654230564600052,-0.0014286777781308629
397,-1.2954203193348484,-8.092213778818477,0.1206803675213522,-0.0009974467084442843,-0.21912135199582786,-0.0031173785124018623
398,0.39926301757679494,-8.924035244921729,-0.5736459384114789,-0.0010162401935767896,-0.22172297392108387,-0.00018943572681245154
399,0.8942292266160677,-9.281472124243153,-0.504480108203109,-0.0014445756839727712,-0.21974671574712842,-0.002232018072198218
400,-0.10591329711999214,-9.115688061142468,0.5458693729062416,-0.0017938855204085132,-0.21586004588961405,-0.005389146334879625
401,-0.1891671536745351,-9.911067697275117,0.7001511458296712,-0.0010611633328089737,-0.21749482092680494,0.00275799859918501
402,1.6640183350801045,-9.895720749747959,-0.28404230282193055,-0.001875273839665175,-0.2148909995318945,-0.0006578754099190007
403,0.689711697760004,-8.678744501207364,-0.436636409762862,-0.0021181233338583615,-0.21571719480059395,0.008549100732535855
404,-0.2803335710197703,-8.115706320644124,0.022513598747313568,-0.0021392053868730205,-0.21653948219689625,0.011796280767029104
405,-0.201529563868745,-8.546874102313309,0.021116272670995695,-0.0018675813464809443,-0.2152915341549158,0.006460355836625401
406,0.67318390722008,-9.26566894137779,-1.8147273708892837,-0.0010271906208510458,-0.21131249605844338,0.0013043023233480946
407,-0.9097351641519404,-9.252398048821195,1.1458566393928953,-0.0011373597573306141,-0.21743240649151985,0.018305638521618536
408,-0.6171263907570577,-9.107132947615712,-0.3950779369762841,0.0002508336175366897,-0.21257255576731962,0.006604063101169886
409,0.4902885237812826,-9.347125636249213,-1.9017935599691347,-0.0002763272238764967,-0.2126455834211866,-0.00017092458403113815
410,0.9394052949036105,-9.478499315472174,-1.7011180951250184,-0.0018177737122898492,-0.21805244791574874,-0.000567851143620038
411,-0.7837106034181474,-8.494442970648453,-0.08489974613841317,-0.0009101469189296012,-0.219590518590209,-0.011514618218790122
412,0.06674730780161739,-8.828684970229519,-1.2464479974246698,-0.00015258828093577537,-0.21792414815902772,0.0003761688362021211
413,1.1543028708414245,-8.772684461872016,-0.628161340349305,-0.0006707306646562969,-0.218268499101079,0.0055507857329411174
414,0.47831415716123893,-8.359590559631485,-0.3369877320458816,-0.0009955779420184154,-0.21535384324343496,-0.00347098136332918
415,-0.5904602026665339,-8.275517807247992,-0.7804538235057399,-0.0009395473110484384,-0.21381011005499473,-0.012089721786283031
416,1.0896608239352064,-9.473343005115321,-1.3049750732615628,-0.0010839593875829453,-0.22278147452461958,0.00466826916865895
417,1.5949415173024584,-9.877548766540365,-0.6306538177179385,-0.0018705543822704655,-0.21843092119284424,-0.0029976921560576197
418,1.0194130483660508,-9.810059368558274,-0.035723694414522555,-0.0014386703629115124,-0.21690462987088632,0.006221981438134501
419,0.5566244638971252,-9.47865121264363,-0.022103052669722845,0.0002713275270953509,-0.2179532745439028,0.011958512934918142
420,0.781199399108917,-9.119832598459029,-0.3964902427778051,0.002053328518287956,-0.2187379551680706,0.00911933446584105
421,1.7674250435312024,-8.986955153134963,-0.5539785147677844,0.002017227369107497,-0.21558405088563135,0.0023956607416449234
422,0.8959137700878999,-9.06643288265674,-0.13739156384017134,0.00026877696506671976,-0.21909036121747943,0.014274238264397457
423,0.9164055228434984,-9.209671140683136,-0.5382090709060033,-0.0013168220952686422,-0.21420848032833942,0.001033261043993994
424,0.7902207996910898,-9.572484576303516,-0.49649111371170834,-0.0029913113692060143,-0.2130003903500345,0.0015534687419108727
425,0.5036354190674449,-9.708462232264672,0.04459862823303333,-0.0039683935920162205,-0.21519738578550035,0.010866580818766597
426,0.5941661287821816,-8.969683213408498,0.48396509239919516,-0.0030784488847662027,-0.21429475143818028,0.0024720052412519895
427,1.4695943068253243,-8.950711615279808,0.41062893574800213,-0.002198994616042767,-0.2133992159500029,-0.004313929091866126
428,1.032928807279461,-9.727010075191764,-0.8277816626333434,-0.0020077626983582763,-0.21597975130554103,-0.008367989714722752
429,1.0163254782913074,-9.574111264265255,-0.6712877403718004,-0.0010682562009470494,-0.22037634813623053,-0.010326115975592513
430,1.390862895825781,-9.00171808184012,0.17462450112091688,5.3051027137628886e-05,-0.2237392459853285,-0.004151812369632997
431,1.279055250155593,-9.461465863722369,-0.4741849860074407,-2.896882731466082e-05,-0.22273081766656203,0.015623499512618655
432,0.8609256841327384,-8.722720075672743,-0.898333084860612,0.0009275932038876466,-0.21746545270196393,-0.0030632686663126523
433,0.1075534835952669,-8.695870387985213,0.044749678240410595,-0.00028606493802122275,-0.21788031736197555,0.0008680790794784623
434,-0.17118205830611538,-8.533361996447782,0.5356601790631228,-0.0015203325115285787,-0.2191449911177555,0.005455079660958945
435,0.09849021813933935,-8.514601293413087,0.3172116715690093,-0.0020995285862479636,-0.22000828698612832,0.005774321713853434
436,0.5571417641943278,-9.307212404812065,-0.034641321479921244,-0.0019948103762268887,-0.22071112059252784,0.00529000496928971
437,0.14292910277123,-9.365883722701886,0.8004100625554216,-0.0003569376104938113,-0.219013017770054,0.010398651082721854
438,-0.24067829144342406,-8.662582063748863,0.012166383617135068,1.4162310842995242e-05,-0.21794567813735088,0.0017079274868810382
439,0.29808402987863214,-9.179340478212126,0.17094920933015084,0.0009420522932155425,-0.2180646433360579,0.0036927015573759436
440,0.899436924855188,-9.736872681273162,0.6714552149621551,0.0017846507259687088,-0.21733427990912768,0.010038206507423049
441,0.1741962193747441,-8.173340799278098,-0.25813655913372335,0.0008875595774651183,-0.21320954101549983,0.002647927209466442
442,0.7343135771383656,-8.90023513794579,-0.20478708189754924,-0.0015968621768622383,-0.21232873556685347,-0.0007820466530982623
443,1.3791479814209389,-9.546401122893776,0.03611963336426589,-0.0021031444991643938,-0.2136121291143678,0.006214902850270727
444,0.7099119443173163,-9.302764209345812,0.36467648637274386,-0.00252808033231761,-0.21187519522342596,-0.0013140327731163979
445,-0.1938429345742765,-8.961827811921731,0.5249722819729937,-0.0027639698612665973,-0.21053200300369912,-0.011697988569736778
446,0.5446351419462804,-9.775468304343322,0.2156587019533266,-0.0019410464458831445,-0.21540115671855684,-0.0008103533862350262
447,0.8388926000021771,-9.774882842206683,-0.5649578614568516,-0.0003251591503088136,-0.21544401983098746,0.007700347660734814
448,0.5044169150094159,-9.957753171947243,-0.8485339930340723,-3.4838794964305465e-05,-0.21898963389841059,0.009239924041213715
449,0.29019715764990117,-9.895807941985852,0.3391451573412759,0.0009679650594801928,-0.21882995401042477,0.0019709450515720634
450,0.6445725460882792,-9.554648161281479,1.0384084810271277,0.0010593833638573283,-0.2170216758856489,-0.003919968882847966
451,1.6135852100246935,-9.109316265921619,-1.2243402902536171,-0.002085509987718713,-0.21852659757253567,0.003598454465814989
452,0.4086474325279513,-9.086578560879952,-0.9039855293877349,-0.002057984004725679,-0.216780667398945,-0.0006532240857079577
453,0.23199863619127198,-8.610646477608025,-0.9485847412718704,-0.00214438034742409,-0.21796656208886647,0.012615167506948594
454,0.5533749079543333,-8.282110656696831,-0.5984981631416192,-0.0006870806473061687,-0.2171986698440018,0.010538238286791185
455,0.4503517989737408,-8.341781449342662,0.6385948777744989,0.0016187083302491077,-0.21596898266099704,-0.0005720865477653624
456,-0.7207050518591192,-8.873705799345565,2.5412577849890723,0.00315979577688761,-0.21749210700344765,-0.0006013666558792858
457,0.8054189028165966,-9.90676540575288,-0.7939495782954142,0.00309881023744257,-0.21667559785692328,0.00873510485131375
458,0.9019399875122331,-9.507175318376335,-0.6345224371724527,0.00038580436969382374,-0.21362173090057368,-0.0002752768845281075
459,0.697600786456464,-8.890290607561653,-0.5957219016422093,-0.001990245064987,-0.21267543127743244,0.0002619971666272549
460,0.6503332990214036,-8.930352418027947,-0.6008430384539039,-0.002579708534368846,-0.21241334711930437,0.0042518726912771105
461,0.8672135956645749,-10.047471915266156,0.39646083991655,-0.0010643687302846704,-0.21014471988113606,-0.0035980901132921994
462,0.3927785260203883,-9.666868983994547,-0.09782812658135226,-0.0018946925009861383,-0.2118650654514725,-0.004450989104539743
463,-0.5008363903295476,-9.249901200619597,-0.9299396479453947,-0.0013310695407050114,-0.21430527299334823,-0.00528532655096658
464,-0.3037396479333875,-8.133228213486493,-0.43279630232800165,0.0004971693193483995,-0.21637802813056373,-0.007594967858638831
465,0.628732374764277,-7.686829022161204,0.3419682323956233,0.0015709897132435745,-0.21870505333327445,-0.002986243497324013
466,1.2743028157864462,-9.391151766679865,-0.24529248115896407,7.57389249558822e-06,-0.22163649133875096,0.013915295119054802
467,0.9555647039821473,-9.545227135741145,-0.30005718188727387,0.0009698326818508774,-0.21809214405445057,-0.005614331349279415
468,0.6950888011719507,-9.936733502266373,0.1912951582867696,0.0010840265412540907,-0.21827246984611923,-0.0023723825327693535
469,0.2757029873479358,-9.80301002821486,0.5929244739463142,-0.00041302427305855917,-0.21813286092463854,0.000749083819541019
470,0.07107046227772526,-9.058610034731275,0.7376875140672304,-0.002367955912905808,-0.21786817864771846,0.003324219739531191
471,0.46474632775971375,-8.134953221684272,0.6346885983145724,-0.003171655834188385,-0.2186853612738196,0.010183892360201969
472,0.37612636119047904,-9.526159117945856,0.39465958054636885,-0.00316612044318081,-0.21868121049075367,0.009335068559265481
473,-0.10513168132553792,-10.279748891154808,-0.09857319451445086,-0.0002478052892669724,-0.21715264804429452,-0.0065044833967192696
474,-0.4465877691991307,-10.177971666018546,-0.2884773100071179,0.0025918858321391795,-0.21697001147106137,-0.005498661973424286
475,-0.27587031045949895,-9.590334791239531,-0.20796547550894406,0.004174914327255738,-0.21639273673474557,0.0036871758205408844
476,0.46020850386093454,-9.045144509003864,-0.10065662920611261,0.003700152301578723,-0.21310407169424211,0.002902420668290913
477,-0.04262412413140748,-8.571083925124238,-0.28261780842969203,-0.0013129951253377941,-0.2113756826512723,0.0028362514212680735
478,-0.5081452126324388,-9.541136210346036,0.293512441472852,-0.0034816480972564923,-0.21182913505818712,0.000654784724053157
479,0.1573627052628181,-9.947305897894156,0.2167343522347609,-0.004100557679253185,-0.21058879531195382,-0.007488077221109613
480,1.2576876479286596,-9.963170945568429,-0.3384820474529914,-0.004071327779137483,-0.21068785682320895,-0.01196817892765024
481,1.4926267913332045,-10.199115585387942,-0.7548632481799038,-0.0038689650566615694,-0.2151230086148191,-0.004478580783791154
482,-0.6611811254519105,-9.646870995781242,-0.8135404426494123,-0.001301809108036245,-0.21249200546167707,-0.013796877247213627
483,0.4441027482566871,-9.015715584495547,-1.3330458911062206,0.000394206641485542,-0.2165868594121544,0.0014680237450152593
484,0.6730661623649199,-9.475585052838733,-1.1181972727776839,-1.013923657430609e-06,-0.21868560230413137,0.009750466275390585
485,0.16632864106412362,-9.754219236192842,-0.2890009765405609,-0.00046933446474036285,-0.2186688251911456,0.006394290913401756
486,0.2064094112789281,-8.727137444471385,0.406510522489122,0.0011738728704733393,-0.2185351510538165,-0.0027631554891473986
487,1.4852787630957294,-10.807102447829593,-1.2385249052597218,0.0019655191547319137,-0.2177060482124352,0.004036085500031401
488,1.2793316869429874,-10.387388173767224,-0.45908214895958227,-4.533976828720375e-05,-0.2175702853098185,0.002087797859232072
489,0.9591331354862931,-9.20156701540735,0.5168322716147548,-0.0015970457751656847,-0.21761291665846333,0.01103335399910905
490,0.9313746470245121,-8.242916540588398,0.7492824627927925,-0.0021537644358762104,-0.21701049704243786,0.014037025993404019
491,1.0698285037616178,-8.234591651034783,-0.1673487491619114,-0.0017548332926466527,-0.2155665233767936,-0.005361887634773324
492,-0.429856344865981,-9.388643929672195,-1.5930684316618253,0.0007352096959494793,-0.21730535359752112,-0.00277855323472975
493,-0.538183181077275,-9.566021057130708,-1.1806271505416235,0.0017411769897532885,-0.21759606721835673,0.007082932083261161
494,-0.2085202566176565,-9.248122519345012,-0.8221244031651698,0.002575575354304729,-0.21549004523053364,0.007230731798031495
495,0.06438223958863319,-9.31552172899093,-0.7426761336066597,0.0016261439160626208,-0.21389036248090057,0.0025726396188386416
496,0.12722756334284716,-10.197363779442716,-0.7486610785819571,-0.0020671587868849556,-0.2150184011710504,0.0007221906823981388
497,1.185771031423982,-9.18365173988403,-0.6801663086274748,-0.002006576551717977,-0.21152320349642384,-0.008629190404534656
498,1.681137134092026,-9.533921894806234,-1.3924866721852995,-0.0013093555153796065,-0.21107425204275915,-0.004754182554180366
499,1.209848299748137,-9.72923473092067,-1.5749914837782066,-0.0015167896864142385,-0.2137382335064358,-0.0024608612761361625
500,0.2721915082316265,-9.253669117079637,-1.152741351635813,-0.0005115393255276373,-0.21646796827924258,-0.0030613817936849677
501,-0.2576424083075809,-8.202397739793486,-0.4634879041776918,0.0030786946791519746,-0.21717904529949253,-0.0032174686731814704
502,1.2018941681726254,-8.542349297191622,-0.32485661373117514,0.002172047405379544,-0.22326922097674667,0.007830475600428356
503,0.5614909516141122,-8.895786543498787,-0.3902232595565326,0.0013843117149695905,-0.2225273989458092,0.00041946109825042807
504,-0.2055446521107951,-9.723991940087611,-0.4687495784976218,0.0021269528464348073,-0.21971534660955777,-0.003456616239039725
505,0.05961730603271814,-10.04924769753373,-0.5336595907123053,0.0025546688602268055,-0.2175481528685359,-0.002829532437892549
506,1.4980872867288597,-9.065449039928165,-0.592622020398309,0.0006593747596885585,-0.2176671768174695,0.00029434277958733865
507,0.20159186421306435,-8.348627363110747,-0.6423091802087209,-0.002770866099943438,-0.21859391129618289,0.013842358288062689
508,0.1411340742187794,-8.734166766995994,-0.7483626227249476,-0.002453677705576518,-0.21643555351221921,0.011858605949930004
509,0.7008684850413812,-8.76062795825618,-0.3270316798858422,-0.00047544042303092164,-0.21485109581512732,-0.003495170010639325
510,0.7263892217644845,-8.690032562912709,0.04606024906341084,0.0014528887778632866,-0.21524778884316703,-0.010895310863225606
511,-0.4835023510343863,-8.736925185838889,-0.09697154982746145,0.002507161181354569,-0.21714706577186374,0.004176507606797565
512,-1.0259936380990935,-7.106350037470327,0.4647805205683508,0.0058374970779658105,-0.21370852651779335,0.005902361535241473
513,-0.45383741693811247,-8.671621706542204,0.5234355584136272,0.0018336086768961125,-0.21253761498757712,0.008293406207205154
514,-0.2288195785953847,-9.772738892744146,-0.39103984945276093,-0.0015758339605337244,-0.21110891674980142,0.0038584279906269266
515,-0.2037378763892485,-9.702728006415736,-1.7002193581268776,-0.002454287775869149,-0.21000561095979053,-0.002713684837896258
516,0.14290902157635962,-8.827009806213152,-2.5582716269745527,-0.001096197554468321,-0.2102213074698223,-0.004873380742722251
517,1.5686622958837602,-9.470984773664592,-1.9276690761212742,-0.00197081484833091,-0.21197486709958357,0.0010659047088298072
518,1.302252238450952,-9.389021681934917,-0.25315217813494384,-0.0020693619282856086,-0.21293886914305232,0.0010229858118021979
519,0.3830495329333645,-9.192016975741836,-0.7173425615641539,-0.0010341734549494687,-0.21491037458876033,0.004491412349581883
520,-0.42274634478726425,-8.73335136744225,-1.4554052057688978,0.0002882288108811956,-0.2168577008760923,0.00882794260110883
521,-0.5145539025645731,-8.169938491823753,-0.7584309108589069,0.001007986917697647,-0.21772270983675238,0.009277102735132355
522,0.2614828212599406,-9.522499018184014,-1.6538027913309636,0.0010578965533009608,-0.2185483340050289,0.001639078646861034
523,0.1017870036869343,-9.02031640947212,-0.7292517021775581,0.0025492734489953586,-0.21863994287348126,3.427620863943534e-05
524,0.6583599461436089,-8.8403135917254,-0.3124762346280944,0.0020786861195678467,-0.2170001930026858,0.001878776267484403
525,1.353871501566928,-9.304074052535945,-0.5314916430197842,3.7303132268273515e-05,-0.21611943991699767,0.008873443944687417
526,1.498850372375088,-9.937419712140747,-0.9832706366336782,-0.0018221795792590849,-0.2172803802177231,0.016741879707110878
527,1.5292063830231206,-8.46014460490369,-0.7968085875746099,0.000828028100405071,-0.2145879092869682,-0.005311959041582001
528,0.9980591364100547,-8.128450970594098,-0.3322153000105799,-0.0011328479387217947,-0.21584116050266353,-0.00472676478200917
529,0.6936577067427323,-8.33560904394471,-0.4749055130093258,-0.00155986836199546,-0.21650763931628944,0.005202770548201504
530,0.21938977814980076,-8.81349498362015,-0.9346472851299077,-0.00013062185298223588,-0.2158787600902702,0.014803007017256084
531,-0.536770299291443,-9.28821689935553,-1.1428408012204825,0.002016544137425914,-0.214403176184192,0.014682379968202396
532,0.11833199501600963,-9.297847267285297,-0.23424128202504435,0.0021549600979170937,-0.2142993832228512,-0.00654299716113331
533,0.035695038364943935,-9.80641391057151,0.10680555611791007,0.0021296056852035195,-0.21123094676132534,-0.002709985016733757
534,0.013646781684290331,-10.105146971173422,-0.013031016484223917,-0.0016416277658751195,-0.21223007438769653,-0.0036367709483905337
535,0.3435182621794235,-9.766625583254756,-0.6890282393863376,-0.003826106048668741,-0.21429731955325826,-0.006054094602009809
536,1.0536079107146459,-8.82690677994893,-1.6813624393705835,-0.0008713525235835521,-0.21507762794272484,-0.0035632606760029758
537,1.5814108055303089,-8.711627419134672,-1.5211276731786567,-7.992582730949388e-05,-0.22028539975536043,0.0032568459854038193
538,0.8902302642182126,-9.583967565341649,-0.13675239093140162,0.0015423343957534528,-0.22000684876189877,-0.0021468817520641434
539,0.6611227670774409,-9.881450443390502,0.42761004344144804,0.0027179665594728214,-0.22079147982471944,-0.009475129229579243
540,0.26666385156117234,-10.156318394815798,0.7726044289815978,0.0035761768158238004,-0.21869245715221317,-0.013025109055622335
541,-0.4463535065789276,-10.552242454372983,1.2865622421490197,0.003613409762346068,-0.21187630742463387,-0.007912762967413948
542,1.1135537502699722,-8.748823579321964,0.28743570073044944,-0.0006910623899163018,-0.2102432723286624,0.011558835215477079
543,0.16437888922715826,-9.844055915811214,0.12831119839725127,-0.0026020129784626884,-0.20383994791391197,0.011096813327875755
544,0.5144165125519063,-10.038610780515231,0.007086459472049063,-0.0009285461500663524,-0.19915241554103758,0.0013281000841657929
545,0.747976778137583,-9.580447097253273,-0.19666541841287188,0.00107182240052853,-0.19744313132682473,-0.0008718675157978412
546,-0.23355696531946255,-9.22647590177407,-0.522529906712102,0.0011226126102449438,-0.19714941642848535,0.011432734386860377
547,-0.3163015749890794,-9.5437969816151,-1.0703895448459035,0.0019524523552336376,-0.19025437502623097,0.012267739642903798
548,0.7384307561914742,-10.307360413097756,-1.3050551268221786,0.0004614498387522819,-0.19043902019502235,0.02003747298588911
549,1.0939609095068858,-11.088918609815796,-1.3516027424490478,0.0004774578919209553,-0.18786470397549548,0.014532019031232949
550,1.2091520243147806,-11.01010711234741,-1.269490937334951,2.06462993301706e-05,-0.18455414245773338,0.0024749158058414568
551,1.3918844745243184,-9.980231361623325,-0.9208919079215433,-0.0020297969437185486,-0.18251085040792295,-0.005585195360981942
552,0.5683552824278045,-10.337634227226527,0.45738698858726956,-0.0020799537140047068,-0.17909869177930735,0.002044681676736895
553,0.22496223094739534,-10.059003274381348,0.37431377160675905,-0.0005498339312651837,-0.17721910033163835,0.0011778800673590806
554,0.022599767540506396,-10.055565750467732,0.05611125950526474,-0.0004933810826707336,-0.1771748681059817,-0.006151952622763986
555,0.4423774081357034,-9.559937354511266,0.08229764655063654,7.905432100906889e-05,-0.17694860984734925,-0.009649240211061099
556,1.3168870659400826,-8.599778110793808,0.4979205389603864,0.001996185780530285,-0.17525214745133672,-0.004109962226039862
557,0.3944560326998672,-10.020764834400122,0.08156481083801038,0.0011378571986733635,-0.17354372346589594,-0.0007298734186213941
558,0.4023376010846105,-9.507547663335853,-0.3248928619095175,0.0010305194278137186,-0.17105632304902796,0.004991492088262811
559,0.6390405191012613,-10.437228599624667,-0.25496730058500494,-9.778979520077744e-05,-0.17020526912637274,0.006950193398069952
560,0.6259967116699959,-11.046512814184636,-0.11271528445112255,6.321768649214152e-06,-0.16874162689487474,0.0030350034281499683
561,0.2797669324399418,-10.115499947489111,-0.18106384588133348,0.002266019502241489,-0.1655587600279207,-0.0026831648926500867
562,0.4858940370015319,-9.295387302347594,-0.1640321415630046,0.003023583337785489,-0.16389238569929063,0.009206825144687418
563,0.7213305310827682,-9.78457225966293,0.01591235802338046,-9.581685416954248e-06,-0.1621816074330631,0.012450095692067361
564,0.36930508202290535,-10.181671857529452,-0.27191167467057215,-0.0005128505249303217,-0.1575347732089515,0.007557467118133535
565,0.16590062730980448,-10.000727044053242,-0.6324400075117703,-0.0003248367633297392,-0.15291261040705786,-0.0016656717282860826
566,0.3897919052214564,-9.412265852825284,-0.6445393561494336,-0.0006640160992241566,-0.15058076419457492,-0.010831767470809285
567,-0.18158655326643366,-9.982594212338784,-0.054454571667394626,0.0010340579465460732,-0.14969916988812842,-0.0150596022836162
568,0.1477011559507847,-11.13027899555649,0.9359245630563844,-0.0011995211765027413,-0.148863660750484,-0.009120950502497982
569,0.10688242076752787,-11.305485463597645,1.3172652721120217,-0.000337269323262632,-0.14568497723537988,-0.005774686940801235
570,0.6429361272066034,-10.74730432848999,0.7916144756025909,0.0006890268625530616,-0.14288731746781627,0.0020972042157014017
571,1.7382086709908193,-9.974662133354684,-0.2630587882537896,-0.00023773051620892908,-0.14116876913055632,0.016089665339390512
572,0.5479592857430909,-9.730059379294863,-0.054314654939727036,-0.0011012136096671128,-0.13515198017935587,0.02030367498765492
573,-0.19483921470176357,-9.961865828332122,-0.149830742400619,-0.0018517351395532012,-0.13386114625321316,0.007169433186075463
574,-0.39215235187916,-9.353111633879552,0.3279064419709743,-0.00035975677979070827,-0.1317861687285999,-0.0008959153112836772
575,0.15602432047253373,-8.69688453512871,0.653619815096236,0.0007054573591903177,-0.1295704272406174,-0.0012183545050789394
576,1.0482215759796962,-8.840607377519285,0.3743157623241529,0.0001561743620071729,-0.12770186167562608,0.0017605930669442173
577,0.5067095150648661,-10.42085830698989,-0.07128466142332951,0.0010576089790628154,-0.1250661737081646,-0.008426596382662705
578,0.8684178975457447,-10.094394624146254,-0.7958272919505216,0.0003523335587630789,-0.12407402659639155,-0.011489816808900075
579,1.319721922987585,-10.603666367038027,-1.2379628986165665,-0.001092280934748679,-0.12323782938816888,-0.005912801563306526
580,1.3300869512687843,-10.498009449247016,-0.7483547730419333,-0.0020689895169731043,-0.12127193321672589,-0.0006657977405497744
581,0.7444582080954758,-9.320462754970235,0.3820380079738872,-0.001444158569411791,-0.11814686637461867,-0.0005100761682982612
582,0.11187811523656038,-9.440202789118043,-0.1530279887285092,0.0018926583447606796,-0.11642934543134262,0.0003729288897871057
583,-0.018047799228588752,-9.934633648583517,0.4244909270434893,0.0020304320686008945,-0.11475529635804473,0.010779179566828072
584,-0.16157939082913975,-10.481139950040106,0.35328649468962897,0.0014466893858136951,-0.11244048524519232,0.011849429433755582
585,-0.04327150958539054,-10.367366789867946,0.23910281782050097,0.0009863983697313322,-0.11098713391889847,0.010687403061532267
586,0.33386090699220017,-9.65329351897622,0.4714861940517851,0.0009795070297147488,-0.11033098660481214,0.011732383208950268
587,0.28832689102016246,-10.008973302497045,0.6554940416506286,0.0009902603507130374,-0.10687315377267638,0.010022010365752903
588,-0.06694221548411047,-10.234891320607197,0.46249735897523475,0.001068795573925822,-0.10255158280067087,-0.0020968391975361976
589,0.7225802198207518,-10.038177362960374,0.23236367010194667,0.0011323441062923286,-0.09938850528515755,-0.011897135368631682
590,1.0868801846765015,-9.938094225602923,0.24858454247440262,0.0004268715407959331,-0.09638832832908577,-0.01776188858129335
591,0.4494398744593481,-10.169746246151908,0.3537120449897875,-0.0009139049708168345,-0.09293584778849018,-0.018173075447722373
592,0.5047661519307548,-10.331573593883968,-0.4687661663935831,-0.0009695971321106479,-0.08952783994294046,-0.009694374609066877
593,0.5642660887599866,-10.213373092674939,-0.5325519510280666,-0.0010409415446377165,-0.08694824479732421,0.0011990555351118568
594,0.4469096609810058,-9.865268456364111,-0.4705399955243996,-0.001101395030222014,-0.0862127830467618,0.010455389067370506
595,0.17118204822499283,-9.749078452646744,-0.35529365104301863,-0.0007641149099538707,-0.08546672158753844,0.016276904495439934
596,-0.05371535290283938,-9.912216519144273,-0.276030801187358,0.0002319202659008004,-0.08392077776401653,0.01729872242179893
597,0.3242659409725704,-9.603164403923111,-0.42422148017175637,0.0019363138863627042,-0.08303422374682998,0.012222070427705463
598,-0.17686386416388983,-9.893536855874492,0.030891642786214035,0.00124459737226776,-0.08379595701270343,0.008737793651241884
599,-0.3140999954619157,-9.901171988363977,0.3093426436921542,0.0010179202805008765,-0.08161210655764384,0.005331221976854295
600,-0.33989100771995234,-9.861935377749404,0.5147074130589129,0.001426587795499873,-0.0781402583357157,0.0007720470905630537
601,-0.48108377240622857,-9.882610540734602,0.5778882516145156,0.001960866098555906,-0.07448314916224763,-0.00552559899098613
602,-0.7826854265866403,-9.73512744053209,0.02027140209120678,0.0011742711795922967,-0.07013340538864438,-0.01319155751630628
603,-0.4562104901593397,-10.12444731383916,-0.5470684035058397,-0.0020710056448100126,-0.06582935570111702,-0.01114819118159031
604,0.12320538861180483,-10.031050607432515,-0.19343909530562775,-0.002472690833885305,-0.06274594370333983,-0.009216619881822322
605,0.4738299769851575,-9.992867670763621,0.21714431994022293,-0.0012683512152076243,-0.06016978195892594,-0.007123669735080752
606,0.36203652544015164,-10.18285698356875,0.3011405846727054,3.4222555715724053e-05,-0.05813886603531301,-0.004212518515786845
607,-0.05952033210746914,-10.047710259391247,0.6038397296925819,6.540403127531277e-06,-0.05815962384809139,3.2397506549575595e-05
608,0.1733758566593318,-10.428192049261922,-0.41750243829678063,0.0015940106747060288,-0.0548612768162228,0.0026549602355131286
609,0.30554009491368145,-10.342251182172772,-0.4062633746354402,0.0020518462931518643,-0.05388430564572408,0.006412193892369165
610,0.4281763127763789,-10.061553469408011,-0.24826091907993658,0.0020342937142369625,-0.05270089746709487,0.00908249270513935
611,0.52768430696085,-9.795069435279512,-0.32627491110028806,0.001674035909062942,-0.05029991388004628,0.009556224126122758
612,0.36072624839671164,-9.567358965463105,-0.012743031174540531,8.153210348047616e-06,-0.048570060602363664,0.008681365628405161
613,0.11678479631088953,-9.648589133939835,-0.17903210718703128,-7.253731484853582e-05,-0.04436571821915903,0.011911971215939293
614,0.2719537440432334,-9.639271486053165,-0.1700508632019467,0.0005305562721865073,-0.04128444230977299,0.011050866870708598
615,0.4325016263235866,-9.518808087821972,-0.03432442219116653,0.0009948923101476747,-0.039085526923290426,0.0081051580541535
616,0.37021299852231415,-9.391910576607302,0.04047422805193876,0.0010168952933783419,-0.037531792404978614,0.0047037505537207746
617,0.140584466362228,-9.531691654630405,-0.30896978589724766,0.001038961409248043,-0.03665300592267011,0.0013046769762519608
618,0.20178058330238105,-9.922110514244341,-0.09779097199640782,0.0010446968239156739,-0.03327918414637039,0.0003652027432399067
619,0.19260639126135018,-10.041090819512625,-0.06747872287799384,0.001061871039512855,-0.029816536525083582,-0.0023297813318290564
620,0.21405255770776221,-9.88337229485757,0.06678194080709945,0.0010681200424542093,-0.02717460374041817,-0.003334977133963162
621,0.25370230897031326,-9.674040156585336,0.22036120257983405,0.000877363025071546,-0.02506971690889651,-0.0025901524338487326
622,0.11514180875432752,-9.944153708587228,-0.2702432069502293,5.841027008074445e-05,-0.02160706571167993,-0.00515858334312842
623,0.12526995432041582,-10.25156805612783,-0.3704088376916172,0.0008277745739828271,-0.019013211344346057,-0.0019203744803073424
624,0.20154076632474477,-10.10204103633166,-0.2693328085205389,0.001063618192562392,-0.01642218724718729,-0.0028360957990000743
625,0.2397222841555154,-9.848985958082764,-0.0543033925355489,0.0010589627890700295,-0.0142485992352121,-0.0021609658022925865
626,0.2572356556886406,-9.698714438694736,0.09984968114018294,0.0010386655623373204,-0.012734120413314391,0.0009242809395521145
627,0.4364340411270021,-9.633230803646722,-0.10983025672158145,0.0010441203076340761,-0.011867790177652552,7.247578254670063e-05
628,0.07709056194005648,-10.048406452364112,-0.03903698542700681,0.0010655796807629264,-0.008459582686987878,-0.0032785889698856044
629,0.16043891116660386,-10.294412418612769,-0.025020273155421144,0.0010673462974974666,-0.00626530727649385,-0.0035885253334139644
630,0.322382306260958,-10.181158810645917,0.0019894210616409787,0.0014627024876291092,-0.0028895662591632973,-0.0027465715256971565
631,0.5190344942015994,-9.343208823398127,0.1781560561749628,0.0013224663575606812,0.0012806475735280516,-0.0011290881639697044
632,1.1584691701100696,-7.147030546670762,0.719202089697745,-0.0020478153106141023,0.002125562052918187,0.0030734967512692354
633,1.0530802278246254,-8.079270916688664,0.5614582972553349,0.0019069975409483776,0.009694352852264396,0.016512708994998286
634,0.2761072089574127,-9.56579405204349,0.30994155719976446,0.006096046962389987,0.020623734450648964,0.01454752971571105
635,-0.002936395987376439,-9.629296640578653,0.6247467405009696,0.008301624879710954,0.03273473795490579,0.006479200672133011
636,0.41655152244948945,-8.162480292509013,1.3541494837911565,0.006772387100307748,0.0452488710831004,-0.0004748678072293456
637,0.5541327965155387,-7.273519250708324,1.369061224394613,9.871369549372614e-05,0.05906146867577821,-0.0023012972213183286
638,0.3241668276620711,-8.636788594303688,0.6885757466174447,-0.0007958498484802791,0.08138339363097402,-0.005762498978069195
639,0.019458234378822617,-9.566606177538198,0.4317135674631229,-0.0034347660040637677,0.09939019758568199,-0.01300981238703878
640,0.2272852918924993,-9.553871043166815,0.553605172391179,-0.004692435857339052,0.11538881322637731,-0.019911412437484594
641,0.7175126059831323,-8.805007885814401,1.0063365472874195,-0.00323256140024668,0.13134324985672152,-0.023822518597561987
642,0.3199467891089532,-8.301398048606478,1.7628405899907493,0.00010755464411126975,0.1485882001511455,-0.02384202516567476
643,0.9881830246010535,-9.310377964410053,0.8673621548146533,0.000920547460000909,0.1632394515471053,-0.017152684214407313
644,0.7323861150688831,-10.020166768020239,0.2711453692030679,0.0010944369553367718,0.17914955890294246,-0.011042781314375421
645,0.7191877840513384,-9.833350023118758,0.374676307900168,0.0002116940338814628,0.19336661480167705,-0.002228543190381857
646,1.1611132549338885,-8.752026099491808,0.9184181756418455,-0.0011284019996609072,0.2062260714031076,0.009390966184583991
647,1.2051784316810217,-7.409043494526757,0.9453990758508058,-0.00120182960110072,0.22169456791031603,0.020374391042897552
648,0.3829047361450004,-9.734612068579471,0.4795861072849704,-0.0020300328976348377,0.2363643551287522,0.019522115575613456
649,0.39792151707107387,-9.23877024678793,0.464625482555422,-0.0003673957082447266,0.25038424423930916,0.018644739452477518
650,0.5548714793878949,-8.277303359592485,0.8189677798765939,0.0017169087228965376,0.2641765636226449,0.0194624184966335
651,0.39022930740620926,-7.889412314493219,1.3323585155895843,0.0021522620045801876,0.27798270741889985,0.017747960646480532
652,-0.30649009827363516,-7.70909550324389,1.6689847036957945,-0.00109663040772626,0.2918548957990123,0.003226120697968271
653,-0.7541087641537707,-9.661729626445887,0.09952537123733646,-0.00020926088689080349,0.30655565917875416,-0.005307871152916055
654,-0.24972905752473826,-9.749138625680583,-0.5463171920180486,-0.002484403669954419,0.31994312358167404,-0.009410416300311215
655,0.6266260803470338,-9.37875079784428,-0.8093459726742582,-0.007944819392689349,0.32724191326136354,-0.006083920400246843
656,1.0216241414570921,-9.423895037843435,-0.7209767423997049,-0.011707248334941986,0.3276274546218074,0.0008482144726835686
657,-0.167014537512524,-10.216867434517376,0.17642416804869215,-0.004184739529623951,0.3241611087999122,0.0009172756910184961
658,-0.6967758846281172,-9.907611923160545,-0.7751385905562526,0.004225910041491113,0.3181598459104439,-0.007452139994303462
659,-0.56336489277293,-9.3277587781808,-0.13766751398712712,0.006871329801929225,0.31405017273982827,-0.0024346570129264236
660,-0.22516766585696457,-9.327328554667325,0.28456877942657854,0.004719628504707137,0.3127640457711675,0.0017273909178460493
661,0.2159524850504009,-9.774315255370684,-0.17853503161682294,0.00035379110182667806,0.3147406807822205,0.001255904915306934
662,0.9739830299464735,-9.632617476434767,-1.1246867582238251,-0.002145199682117241,0.31989075897609837,0.002106195055999616
663,0.572500308472549,-9.45860191024713,-0.39632011839397696,-0.003024971487581261,0.32244556431209676,0.008879401348398123
664,0.25392876149344723,-9.277088823726492,-0.3835832337116557,-0.002552326921341633,0.32702716685382793,0.0027665435513146075
665,0.17107121879445203,-8.595930040595059,-0.6702763932596199,-0.0016785837908097222,0.3278274589925583,-0.00308060890796605
666,0.23412967004848176,-7.995422369833544,-0.8330630438621655,-0.0008313499979490955,0.32415984405047427,-0.0047560980765494094
667,0.14200810239837278,-8.967624558044546,-0.44181110737047574,3.6775041285910515e-05,0.3198878850072351,-0.0064716240681869834
668,0.04408548740474319,-9.83394421908231,0.5331491239348956,0.0025766521416008235,0.31818642352644755,-0.011530094929532643
669,0.38666030036324384,-9.804064724737989,0.6892459512118818,0.003130333336141422,0.31643197589103234,-0.00558775101147947
670,0.9005393194068425,-9.628379395362035,0.334137678511836,0.0022230532968875753,0.3186686542092081,0.0015481021305006684
671,1.0164783937160538,-9.771473595735094,-0.12330647190673572,0.0005269665021443348,0.3256058912997337,0.005243771703098232
672,-0.04159068970554536,-10.416726976746574,-0.186577597352264,-0.0011586062587742411,0.33497626933112595,0.0051911408806429036
673,-0.1953291952455604,-8.986735654921361,0.08394161298697869,-0.003665341339377942,0.3375656323159743,0.005152090745598321
674,-0.2501601327064015,-9.078330795139966,-0.20964158314030357,-0.002963541061232137,0.33816506030550875,0.005158445389880228
675,-0.2886032942851945,-9.720996122403331,-0.5527273877016401,-0.0012694940582078926,0.33638997996768577,0.0016578114323446426
676,-0.13373945525469588,-10.347858268107737,-0.5298308924604782,-5.229530834130689e-06,0.331807066051032,-0.005104348976550363
677,0.569989674870985,-10.670835033085549,0.1595371374718741,0.00011004171878001793,0.3241879430184196,-0.011687688587063283
678,0.9670658786701526,-9.530415335044225,-0.04687574252824847,0.0034409370135407786,0.32159041264869836,-0.009940165349088387
679,0.5676273774798429,-10.12153694253186,-0.5926191717661137,0.0028909992800243344,0.3243182795318042,-0.00694618465921559
680,-0.12102267083945661,-10.254025808452678,-0.4513900468067381,0.0012324784072806115,0.3272865914211619,-0.008914590976286045
681,-0.42715838018396457,-9.669343677641386,0.09756470913780506,3.54565937899077e-05,0.3292608616702208,-0.011297491597487783
682,0.36785928763228176,-9.522106693692004,-0.17188642441139562,-3.047929357597362e-06,0.33182478609042354,-0.002141673039819209
683,-0.3606849679204009,-9.509548090579784,-0.59398107563791,0.000815254310948669,0.3352611857328684,0.0004036984397723035
684,-0.25207927423165954,-8.816114943087797,-0.3408126607446226,0.002342912867881809,0.3420923427694055,-0.006288765932533054
685,0.12337990777262862,-8.812669235879607,-0.10832991935935592,-0.000391332324566252,0.34394169948985365,-0.007151132896582002
686,0.43785165287627165,-9.312889887839699,-0.1559186473089375,-0.004781798591072747,0.3419107117979567,-0.0013518663587496268
687,0.5132194364226863,-9.09164808801205,-0.41460970276867687,-0.0030831350369337437,0.3435393190679363,0.0020336395593003103
688,-0.07480586661412278,-9.620167698255539,-0.13907209137107118,0.00024206357539796554,0.342661996820341,0.004624023886074191
689,-0.19810882652303302,-9.824192562257693,-0.18022611980768247,0.0003347944927063495,0.33844104864311697,0.0025438930109941854
690,0.005512862409155633,-9.340773057195925,0.1427701341549581,0.0008414334128934573,0.3355670411375574,0.0014232976465571026
691,0.2767141874611391,-8.619973395989927,0.4264939407558998,0.0017935904467976404,0.33445325467327947,0.0027688027724166943
692,0.2536216211254359,-8.666657655124657,-0.35609309854923205,0.0010014276017918193,0.33286770155764467,0.00490233832900049
693,-0.5532607264220709,-9.896738853448172,-0.041420153750386865,0.001898111087247736,0.3354992381115428,-0.004436017900623988
694,-0.017031762091619995,-9.625439773584601,0.17190983172254104,0.0014550047817294145,0.34014544148519815,-0.009795692021692637
695,0.5284660569655062,-9.02152333801462,-0.004122570534993236,0.0006049191314128074,0.3462357711320251,-0.0076929633445972055
696,0.44928712606435306,-8.76449686496005,-0.24952115429641825,-0.0009891607039464957,0.35161946658650634,-0.0020432595958608498
697,-0.354196605851541,-9.175507519292651,0.06132682359469911,-0.004204834484509992,0.35324398254963496,-0.0015354392896545677
698,0.28327961775705635,-8.952952581951843,-0.7417609626601774,-0.004160460239914248,0.3524142075982925,-0.00832463957699006
699,0.1619269535073883,-9.067937633758579,-0.46386318582208547,-0.0021883459104850597,0.3488192194348919,-0.007032554505248005
700,0.04990292002685186,-9.218055826201875,-0.07720283883308995,-0.0001529551615605362,0.3449579625557617,-0.004057731676562313
701,-0.011456768541241724,-9.297155785480621,0.16368812807810595,0.001512779747115276,0.34150312573114106,-0.003214637968273184
702,-0.3369581409719189,-9.320440741206284,0.38041827770320646,0.003096264351086965,0.33829107976829986,-0.006287310310873199
703,0.38032501385641704,-9.431880831555176,-0.25051144909538237,0.0022387200286381817,0.3399995031232431,-0.002907212084410712
704,0.2474713541822685,-9.363850332285018,-0.03337435474247093,-0.0006240027263571949,0.34649537870607766,0.002455684637784184
705,-0.04866189837208108,-9.462083033514785,0.22577536729097758,-0.0007857039024142865,0.3533102305356681,0.003742892459129109
706,-0.2343846144125401,-9.73280975969802,0.03329640066572706,2.9731209837055572e-06,0.35884745427718434,0.001185796436116186
707,-0.254729391224285,-9.907105496991074,-0.806964105103387,-0.0032440699273387414,0.3629683135494965,-0.0012532773180458753
708,0.042955358356380924,-8.380552428075543,-0.19425319380943853,-0.004920077857239269,0.36296550572535846,-0.0004245160827076951
709,-0.19742866766491207,-9.22132492878361,-0.4995759129895207,-0.0039009919709149894,0.360225418905591,-0.003622389103290496
710,0.05667431938605985,-9.864371608228817,-0.7584659027076359,-0.0008089820001220924,0.35775359513841265,-0.010156159367293319
711,0.45254468251461055,-9.78671592550884,-0.6240598830844363,0.0016397517485980053,0.3547523263129514,-0.014775553378623393
712,0.012627012615002904,-9.54658311498113,-0.1259223462244456,-1.4952545957652729e-05,0.34910012082445463,-0.01057404397834465
713,0.19378385035323717,-9.311383045527469,-0.018937164133063168,-0.0008724968684064592,0.35080854417939794,-0.007193945751881794
714,0.26681727113762865,-9.35353299726676,0.19010679093964672,-0.0010725926092546854,0.35181406590272046,-0.0017578541806921146
715,0.10578049016586386,-9.459960205073337,0.008723339459684926,-0.00015518726319657656,0.35362540524281183,-0.0005145396786895212
716,-0.10211181430323113,-9.447569374254833,-0.2835923057336749,0.0012667514273432346,0.357006170806751,-0.0015015412376385249
717,-0.04350632437367612,-9.17841997623054,-0.10291142417192031,0.001896533025290112,0.36211859452150913,0.0011791705311381521
718,-0.10225989336986173,-9.023972666235622,-0.5165520626512673,-0.0006435808903311268,0.36640740781570524,0.006227897507229
719,-0.20331203564249223,-9.49669291487638,-0.6636966171681471,-0.0024690277520259527,0.37002972335083856,0.0051177781489879556
720,0.03965697682911759,-9.370243631442236,-0.6862205983230285,-0.0017810315194181888,0.36868157067380436,0.0011610037102854078
721,0.15861347410659316,-9.037290312474697,-0.6944597895226624,0.00023829245278658042,0.36406169782958964,-0.003367236354415252
722,-0.5203035945162491,-9.511219546881703,-0.7778267269441979,0.0009946521102790894,0.3605235621248272,-0.006742224577085224
723,0.39527285567428627,-9.169529179736706,-0.851182672243937,0.0001820465524021892,0.35536695436025634,-0.01013045714547569
724,0.8267534078200792,-9.226526210847577,-0.30074394289504225,0.0006664578338684559,0.3564657535309522,-0.004564641570543343
725,0.7268199459180898,-9.402962669151814,-0.07084040077878515,-0.0008556513728151994,0.3575933605555053,-0.0036358368517100024
726,0.48441931050397874,-9.733895203244275,-0.10707462541138124,-0.001798607324524179,0.3584347707814906,-0.009494770112702985
727,0.6401958685661615,-10.295645241467188,0.06977552714453468,0.002160857008762659,0.3612828520946336,-0.017692604161210827
728,0.7689641072827843,-9.980769182070203,0.3209874635967208,0.002110463423170465,0.36728236253665686,-0.010072471008748241
729,0.5037374110530249,-9.930593684831946,-0.37544207973889215,-0.0006632809869798131,0.37258380091859505,-0.0031754202369196926
730,-0.08076072567335565,-10.091362836581524,-0.6174276436561204,-0.0040153060062988934,0.3748186625637856,-0.001728681253308788
731,-0.269622381788156,-10.076766392753552,-0.4850748261452285,-0.004960931437146192,0.37454686207483456,-0.0021240759429989025
732,0.699153476070881,-9.46593872153152,-0.6206214441296194,-0.0011011267042600394,0.3735407684848647,0.0022305843709957422
733,0.7794500203656769,-9.211093515801805,-0.46377140328465566,-0.0011341022349995325,0.37092851197306076,0.007333271061871491
734,0.3816915646036233,-9.070626941003693,-0.3223507753972511,-0.0018619207772094506,0.3661870767068083,0.013828631863053506
735,0.026553883399363126,-9.177551513614802,-0.0677193388915472,-0.0002902316416523006,0.3629975597369546,0.010944669124238464
736,-0.15979664750802317,-9.280164230891845,0.18995417638952794,0.0017561760199827296,0.362145329892398,0.0029751333814786165
737,-0.1771039189020528,-9.040386793950782,0.25637972476923204,0.0010647266988386428,0.3633422250968337,-0.0003082997225060251
738,0.3874199565362212,-9.00773998250354,0.1443229876926999,0.001911333983995582,0.36852455038492266,-0.002013800357738983
739,0.17571607444073972,-9.684635749980844,-0.08721011130659403,0.0007033498014067303,0.37514117927482593,-0.005850867844026612
740,0.12406273090098248,-9.833502556817788,-0.37784069743943877,-0.00190598951844719,0.38007394271423106,-0.00965584984216958
741,0.3567403284330596,-9.616055939913695,-0.3364972092969756,-0.004127399971100915,0.3818535842853614,-0.01391784486351224
742,0.6489719842127842,-9.685404311174196,0.3087978292593007,-0.0037664321144509185,0.38022140254931613,-0.019187428117254744
743,0.5476220776943777,-9.900901817730887,-0.5823867850126581,0.00039400796487711574,0.37934341271970584,-0.016587809525335392
744,0.6878435428776069,-9.802629382880887,-0.44033898206764066,0.0003708891462934261,0.37558764805322614,-0.009803008558734979
745,0.7598980286289524,-9.395123072018654,-0.13990793420886438,-4.513307979297474e-05,0.37122634052902614,0.0003124555785172928
746,0.4891645212192222,-9.222453345099176,-0.03719878071699054,0.00015624056154943503,0.36857208817165965,0.011929637631448612
747,-0.27234958246881236,-9.797324216291031,-0.22565699168050218,0.0007186192622797718,0.36938498264132774,0.02206141213146533
748,-0.7144701891650495,-9.448194526522542,-0.09884907299821344,-0.0009519339223238996,0.3702485050528515,0.02203836820979804
749,-0.6786588410256287,-9.766509002403065,-0.15745617730305642,0.0016013547132356358,0.3761756004311691,0.014970339711917973
750,0.10554200354512144,-9.021903358864204,-0.8008802905888058,0.0005786403769859117,0.3825959232656744,0.009919943867845648
751,0.6265786335551936,-8.27476414029294,-1.229483941351526,-0.003004730586895825,0.38692314856316323,0.0047486778636224095
752,-0.12382045414860747,-9.17865914526832,-0.544792625557051,-0.0051509322609899185,0.38753942832976573,-0.005910722775206263
753,0.877438284161472,-9.823260971824402,-0.7153796252022367,-0.0042157909527992254,0.38502614251677275,-0.021174558129932797
754,0.3089744659127297,-10.292756400758877,-0.39385980219322825,-0.0005639175102776932,0.3824479814862654,-0.023598327496637702
755,0.2687447836556028,-10.21117102273616,-0.1929230943897926,0.0006282609269479985,0.37932732102283095,-0.018571473138406583
756,0.502354338888573,-9.736724803604622,-0.004932835742670463,0.0005961473592109297,0.3764273066674473,-0.01093718049025607
757,0.18618069683499341,-9.305199901006734,0.3648004248856295,0.0018470969954217595,0.3750658590438397,-0.004896278573295423
758,0.3149489355516162,-9.920071332859697,-0.11325723892370382,-0.0007039316083428645,0.3776220079692628,0.0018568557344588606
759,0.25070675431702527,-9.43983227116732,0.07235453758646695,-0.000435461071267373,0.3801787083479036,0.007928809768703358
760,-0.09691907016404337,-9.24540435688028,-0.02700648670253579,-0.00011211098791647941,0.38531277452478974,0.010331540016568368
761,-0.37645221461443346,-9.128379295465166,-0.13637790760062435,-0.0009684775472348956,0.3904360289191325,0.00913347974079832
762,-0.2355171851229691,-8.60842627292945,0.16964225379561418,-0.0032899994757803457,0.3918515524551047,0.005217323212037999
763,-0.39170375603780805,-8.936101224605881,-0.4608047030535541,-0.004069704951078446,0.39016938455238265,-0.003277374420948853
764,-0.12297336405474225,-9.506052709380976,-0.4748398424427759,-0.0020292249466514088,0.3870172175751134,-0.010294974110797512
765,0.42581636594736416,-9.798095010082353,0.024865491355768488,-0.0005103185265050688,0.38409027214985797,-0.01198332104269497
766,0.7426549283035756,-9.631075538580594,0.2796622215626434,1.6838034158036504e-05,0.3820914288613686,-0.009383069236946777
767,0.34039817429690516,-9.127383161076864,-0.3317655329189622,-9.262551245512093e-05,0.38146773246440996,-0.005391716954549488
768,-0.3421224522086922,-9.668231054704956,-0.08047553523685833,-0.0009390939310620969,0.3831852708411053,-0.0037100661470087937
769,0.021667625103446497,-9.386074373240975,0.35295212407133103,-0.0010793715935676228,0.38416424513009034,-0.0012942588260234215
770,0.6180955258266496,-8.928770716118368,0.43712243318836086,-0.0011095936850237893,0.3870815992207559,0.003287811180650866
771,0.7702435174430411,-8.826057458616475,0.005803118473443031,-0.0014479570849096274,0.3910575110815553,0.009813451546396889
772,0.18502990737526182,-9.32434710801269,-0.7965135975732888,-0.0024973372402788464,0.39420876207416583,0.015748303201989545
773,0.767179853512389,-9.085576070246734,-0.6394259169535436,-0.004947762389152559,0.3951144715907102,0.007225395952850979
774,0.6771099783256963,-9.457614617350304,-0.4042127358933765,-0.002400444118201879,0.3915867271538727,-0.0004967060476318832
775,0.29020679980174746,-9.545664231445642,-0.2512769343954835,-4.568623665647878e-05,0.3878158159901403,-0.004492204006836181
776,0.09644841527357578,-9.630627345162456,-0.26070998455776073,0.00043347519808321894,0.3846765948656373,-0.004959082328975156
777,0.40350672024759043,-10.105228009219786,-0.38874036726179895,-0.0009707059331127931,0.3828356218842213,-0.004010111228697657
778,0.22137065635939993,-10.12004379941032,-0.010042532519266567,-0.00010265542434853095,0.38717156582175355,-0.009108729348911855
779,0.20172756744159795,-9.488104792279326,-0.01155366735067167,-0.0021407756492498034,0.38777765603537667,-0.009119656743007477
780,-0.04594974923124405,-9.39598142913728,-0.11186710648205984,-0.0010906545230366309,0.3909261842846161,-0.006712871229160316
781,-0.20905371997607847,-9.548311004244493,-0.2996883340461918,0.00010748480153972004,0.39639207794498116,-0.00270624327842798
782,0.09827784343294854,-9.48879332078982,-0.5948607051177939,-0.0024288775320720967,0.40162808995670773,0.0017639854092572345
783,0.6848343072447891,-10.07055993814437,-0.8463212774256188,-0.004934505694700436,0.40076792494250363,0.001736872916928532
784,0.8559026787146473,-9.535704997483009,-0.07943687394718327,-0.003816681574030946,0.39767974058968436,-0.00044041200009180064
785,0.3869024905736741,-9.278892809317078,-0.024451325676156765,-0.0016284884272790706,0.3937002383931972,-0.0008582273543275107
786,-0.11794606342589176,-9.401672103942813,-0.2317055992465833,0.0002707310872449426,0.38970631574384584,-0.0015279310328367474
787,-0.08392347155958904,-9.664658932494769,0.06190188991515838,0.0010283815839641128,0.38647383911267846,-0.004604804949742776
788,-0.20632674030162587,-9.734059953846094,0.4402202461307092,0.0010340783421171295,0.3847528214323811,-0.0054476632391461804
789,0.3002024223309228,-9.540072670731254,0.5508260082644765,0.0003136500827265466,0.39052274877215576,-0.006325135103941611
790,-0.05520438420739965,-9.488489537929544,0.32546206703744585,0.0005218908886933529,0.3963599250112439,-0.0077181608443439315
791,-0.28942609682657383,-9.358192617154755,-0.16505741119400913,-0.00019089398250756037,0.4005766498939635,-0.007865824004500767
792,0.5411646416321294,-8.993586159732171,-0.7698278982084847,-0.0034456720542379313,0.40263039660601474,-0.0056748575622574855
793,0.3742065830679913,-9.27256347615251,-1.1729116971792766,-0.005952003754839655,0.40090724321154037,-0.005698995318166927
794,-0.008150682141751936,-9.491063618310662,-0.37071826482790504,-0.0018898098363648095,0.3991831428466186,-0.006385236384033434
795,-0.02959820182262926,-9.606090061806178,0.13648527495404453,-0.0005374441248386355,0.3958339179275455,-0.004557375695845544
796,0.030164706298958385,-9.611902271883686,0.12151504075339421,-0.0013781953339206579,0.3924886775389598,-0.003707342264157318
797,-0.10826612524032013,-9.565720525085894,-0.24407976551764815,-0.001985183599305227,0.39121339879372924,-0.00646382325814457
798,0.17130294056649198,-9.761419757710767,-0.28418508492197514,-0.0011603951438878604,0.3929287840228281,-0.004762097666565254
799,0.6080752596860023,-9.849613188931901,0.23168158954756274,-0.001132299926091055,0.3961108263626667,0.00660867243661158
800,0.33279400162110623,-9.294898887640898,0.30825178745624193,-0.0027212009936007577,0.40117727704196326,0.008638083997919424
801,-0.05860100827379493,-8.97591940381371,-0.05553168421277599,-0.0045663103661240136,0.40592752238632135,0.004354331816207108
802,0.06844164532839916,-9.517608444959444,-0.5686559006031892,-0.005268609970332509,0.4076329495187745,0.0006489618272577926
803,0.1839903310209072,-9.178632022922299,-0.6111935737744872,-0.005268206666054448,0.40332124269762276,0.0006638714069976365
804,-0.08592871329457721,-9.168087021253747,-0.6350442467392938,-0.0023118174981765125,0.39825365755152464,-0.000780594591545004
805,-0.08418797078598682,-9.24262294281437,-0.532920354239118,-0.0005375234778019955,0.3941826495570112,-0.003517960752190961
806,-0.0719135445623041,-9.440694755902324,-0.09145490980434329,-0.0003231129444510191,0.39107889090745485,-0.006575153059443347
807,-0.29552688967214374,-9.71520982053914,0.6076772497633639,-0.0011461595111191972,0.3893156779926703,-0.008439075757620566
808,-0.20739653617785794,-9.452983176422988,0.20331562124596905,-0.0019991140691138823,0.3927534212245406,-0.0059137762626720256
809,0.24598710242623267,-9.846587422834663,-0.09467382921538564,-0.0013755605504259943,0.39618629593633525,-0.002618635069531926
810,0.06980925038506197,-9.921767313653081,-0.3399171306699129,-2.7074228762590663e-05,0.4018189085858127,0.000233583006955055
811,0.0548207050484395,-9.534342038973119,-0.582257696771149,-0.00032142312719090824,0.40669593260725273,0.003090125679614658
812,0.6690520969873648,-9.031980635037334,-0.6804213966946775,-0.0034496061755611073,0.40816835381805494,0.005970789512180865
813,-0.15251864280918656,-10.090382970738784,0.3009783227501083,-0.005120078714453879,0.4081696967769827,0.005950726946582469
814,-0.25044523829032866,-9.533237111670884,0.20848335858950456,-0.0030618965142208262,0.4028004738384211,0.004481686457956385
815,0.033760980370818774,-9.1926265675324,0.1152222002596267,-0.0010800667735130845,0.3995365727331742,0.0028187280013842074
816,0.031257668697338564,-9.400703806302722,0.0014568558308863666,-0.0003770645995770063,0.39714602607341076,0.0004709332891999645
817,-0.49540315855072736,-9.894583939789507,-0.20682912543118995,-0.0009499690924463862,0.39445671548107686,-0.00292295007767631
818,0.009387921741432693,-9.172762339661658,-0.11138658384511148,-9.274735284114074e-05,0.39619700993651724,-0.0063149737284143685
819,0.40860463458913826,-9.268315802257542,-0.18496616278882586,-0.0007597835867252336,0.3971448081859481,-0.005164795860641441
820,0.12126254063136158,-9.495206276819607,-0.3157010899774406,-0.0005347178608117029,0.4002214030208512,-0.002378029791110849
821,-0.26237557114547466,-9.555220116443168,-0.46274849761615433,-0.0007058219206101245,0.40384095034404854,-0.0006812305368204702
822,-0.1449013595366348,-9.404997198888559,-0.5493656172486747,-0.0023715976380487467,0.40566795178343096,-0.0015564235723966294
823,0.465646144948645,-9.672904920952805,-0.3241866396673978,-0.004036292773077682,0.4030860976094656,-0.002416363071329538
824,0.7205075068614919,-9.412833059971561,-0.5837033148516613,-0.001194496260063284,0.39972544818313305,-0.0032202161046931306
825,0.018319383373848863,-9.268428105650962,-0.388811588658391,0.0005126201230974363,0.3962705977645198,-0.0023806447287206063
826,-0.4144307418388424,-9.505702596606625,-0.16837244213634237,0.0006778025580159982,0.39385886843318735,-0.0023755652201470426
827,0.1805458385685619,-10.109118719678007,-0.21672715236543433,-0.00014161040012522508,0.3932713499487641,-0.004801339031977669
828,0.16047170249486353,-10.362468993532092,0.2998890694799867,-0.0009658566089911744,0.39414331200512726,-0.006512002072114482
829,-0.011768538852616937,-10.073655145236176,0.46219745621853836,-0.0010706617012401216,0.39654556266646634,-0.00285014861731675
830,-0.21469092464674633,-9.120278123796602,0.2982454892325386,-0.0005412266110068967,0.4013774600346171,-0.00028220388191424543
831,-0.013912255167903342,-8.79225362926951,-0.214548967365242,-0.0014073757632934003,0.406360563018785,0.0006997233537943473
832,0.6561742363295568,-9.677757084904929,-0.7633975783123892,-0.004483200190394608,0.409004919911923,-1.1819392157157377e-05
833,0.6086817680576362,-9.638417789627704,0.04395751576359007,-0.006126608347135553,0.40730266630638307,-0.004271641704653026
834,0.32028057796336507,-10.10290214783372,-0.36620293043889834,-0.003992159282700322,0.4024537637035539,-0.006161895294291612
835,0.03129112546301413,-9.764755002207487,-0.08557902089696831,-0.0020355605396445613,0.3989824277922381,-0.006146148895731141
836,0.19248099041600994,-9.481878531439698,0.0019455050601042412,-0.0017445825208835958,0.39638761390633426,-0.004588397376901336
837,0.8126957801225061,-9.814886037456107,-0.5860395855860527,-0.00302938043993292,0.3944834361696825,-0.00191306700839736
838,0.5424293627400887,-9.629022445695956,-0.08557951806333623,-0.0022164522234888505,0.3961905165656978,0.0014870937836635241
839,-0.10299679948573551,-9.757390580273768,0.19648904152959212,-0.0013976857393135306,0.39711491368022844,0.0041156965785584115
840,-0.03534017606314391,-9.242967539342686,-0.15523069811641876,-0.0011330288733924219,0.39968054580377677,0.00665690165047155
841,0.3246054074835312,-9.05977452121564,-0.6977135627946348,-0.0014872049128641087,0.4031251146252044,0.007780374003440438
842,0.4989450718767268,-9.749726110415985,-0.8103090210527233,-0.002455073304707081,0.40558206656370677,0.006770926894248098
843,0.36479108933545445,-10.04689440569385,0.3876859213014146,-0.004114233048728442,0.40300436317280736,0.0050621635943786224
844,0.6004124225413446,-9.983241216675864,-0.16770178914263223,-0.0034613993901906163,0.39885502507937753,0.0010510129798203742
845,0.5833460680887705,-9.75545461566247,-0.2531957250429703,-0.0003851076101371409,0.39627491320631625,-0.00031430157586398444
846,0.5194759699827367,-9.730070275324227,-0.3759758332875359,0.001000857979607838,0.39419329687501137,-0.0013571633204318724
847,0.5191643757782686,-10.02150101267896,-0.7670715902350547,-0.0010631788173820543,0.392352462690541,-0.003922872949381757
848,0.17986251482534246,-10.04472956748322,-0.09027159812518021,-0.001046734011504774,0.3940900835031019,-0.00647530986372438
849,0.12778023279730677,-8.904944572729553,-0.2116724398083542,-0.0018511826845594955,0.3957893451937303,-0.0012185402046251935
850,0.13129028035177864,-9.356869463272464,-0.12900994078190198,-0.00043914750286393287,0.3992529266475895,-0.001546967786756137
851,0.20603498181662605,-9.995824157599625,-0.28963524502812493,-0.00037590056662659404,0.4032237957351599,-0.006393678495369542
852,0.345044002876152,-9.88944723135201,-0.7160006339330841,-0.0032408448146724494,0.4061057616146507,-0.012639027693586454
853,0.4258301602459139,-10.377416003215618,0.030469814603053744,-0.004053934322538414,0.406123040123827,-0.016045151197785868
854,0.8531856948964173,-10.010910050249478,-0.4966529767755422,-0.0033566997112734528,0.40052635118129293,-0.013914090419242728
855,0.5379094982191361,-9.639203753436645,-0.23221870256354377,-0.0013922946098306262,0.39623669463728123,-0.013625429526756903
856,0.2053249638760515,-9.538685931482677,-0.10427485035330859,-0.0003202608721838584,0.39278157808604697,-0.012634810077772882
857,0.3118353032891575,-9.682950592501996,-0.5458854721918516,-0.0010262900929527549,0.3902413277345684,-0.00954149870851703
858,0.27315587036666544,-9.470449174804466,-0.12992305306887475,-0.0010375221663896247,0.39195738507362876,-0.007849813818781394
859,-0.36725773808139733,-9.732383392752343,0.16521465241233682,-0.0010641268863686537,0.3928603323220447,-0.0037865442238670705
860,-0.2446180824757163,-9.54840759282717,0.3955550965151734,-0.0016723695920043764,0.3942812045773141,0.002180813759831375
861,0.24201222334608957,-9.125941805402576,0.1972797379470223,-0.002187109041082719,0.3967217653561239,0.008225305774540009
862,0.5623570276234001,-8.892928439908475,-0.37527940251642117,-0.002521115285962716,0.3996771325667036,0.012528723564332676
863,0.22942013664506009,-9.579768392555913,-0.2541373017069158,-0.004197209059124263,0.40053650029771254,0.013355300461255317
864,0.4768061843714399,-9.650732441570856,-0.3332737712839996,-0.00506678955170942,0.3957768404068941,0.010245170697099565
865,0.21205030063372549,-9.706337804189262,-0.3610268806110515,-0.0012892810116895716,0.3923971466848376,0.005160646452444988
866,0.17295132442055014,-9.647482432479746,-0.40503919595098015,0.0009390813187376246,0.390202306737382,0.0014736420211214855
867,0.63261854463779,-9.48462477031453,-0.5300630789489802,-0.0012488625069369437,0.38864468451906686,0.0006037298435749301
868,0.5650519402921858,-9.58499994440524,-0.7464962105215857,-0.002079261801522563,0.3877873318569468,-0.00025295032079015344
869,0.29808621133178304,-10.375097358281893,-0.6667832615991943,-0.002094209254175372,0.389380647741979,-0.005888487082053062
870,0.2560187151485458,-10.082994861172093,-0.6794949363891885,-0.0015021587554402685,0.391711132836906,-0.008320386494749398
871,0.5109596814209287,-9.698286703332728,-0.5039469988105013,-0.0013950875342581028,0.39468377515812814,-0.009552239235179824
872,0.7178214254597308,-9.868693955682435,-0.1269388027953784,-0.0023887160720423694,0.3974749088506782,-0.009969863899700303
873,-0.29469841357439797,-10.156794779150816,-0.17831370966733762,-0.004092406154530968,0.39745134321376185,-0.004896186642026255
874,0.4435649090715519,-9.873905849069091,-0.47228671350454415,-0.004236163196971696,0.389285042046692,0.0026267051363628776
875,0.484724201140861,-9.648413431966883,-0.2617686882180711,-0.003107440658946506,0.3860227992955796,0.007347776862915168
876,0.04807155691249956,-9.467964104035334,-0.1711040162094844,-0.0025665157760140925,0.38514874814041306,0.009620160742234297
877,-0.41331386403240283,-9.452093749280033,-0.332372034523217,-0.0029105094919414016,0.38496230451121016,0.009633391985982464
878,-0.3452576466118155,-10.088629394108018,0.2585852468750929,-0.0012173479449159963,0.3875649158674572,0.006248424881623523
879,0.2704523657697663,-9.647330274242696,0.06780584440171059,-0.0026948717390747018,0.3868990382809253,0.003640668838184823
880,0.4354146278977936,-9.75325478839104,0.06340660910135748,-0.0014173184502373137,0.3890703751633409,-0.001270244782732274
881,0.42070644796497925,-9.454223494395842,-0.015489393874931187,-0.0003787661162636482,0.3921570497059278,-0.006449013623654233
882,0.26692279504265626,-8.681433054926565,-0.26902112636174413,-0.0016898683976317402,0.39390121102887093,-0.010545855565269869
883,-0.5805974377273916,-9.282840771504022,-0.36876168512175633,-0.005009289606099974,0.39219533614357266,-0.013976116825378807
884,0.28064987499078087,-9.494277327394617,-0.8057463173824726,-0.001211377397752875,0.3871746632678252,-0.011654110391106507
885,0.5524035119587658,-9.494917403816261,-0.5233674571376901,0.000605202319132522,0.3856248055874738,-0.00967647362042166
886,0.7296271674428829,-9.767733787177361,-0.3845463931084485,-0.00047049122741288406,0.38443979828893793,-0.007216969087193122
887,0.9281379072881679,-10.133827140423021,-0.5954036131995486,-0.0031521845703275436,0.3821893533342211,-0.0034972996275233806
888,0.3117150459032703,-9.211162602899797,-0.034495371617972254,-0.003185326590038969,0.3813014518301606,0.0016002213688667763
889,-0.4207707780344761,-9.175821868531145,0.0689094824687293,-0.003197449012552762,0.3820792009796279,0.0034451268208798127
890,-0.5020148107677043,-9.290457075938846,-0.030476923231042626,-0.0026221696312502714,0.38414949457867975,0.005743297283030614
891,-0.03634949872083035,-9.68834878141414,-0.3006872142297439,-0.002551163047086408,0.3867372709742133,0.005560216677027996
892,0.6451262438711468,-10.059460779980986,-0.6066120871743479,-0.0035321464027291663,0.38862523227174417,0.0010801610520194778
893,0.9134342089536917,-9.263924864599213,-0.6201697807545603,-0.005147168793184473,0.38780591530108166,-0.007427549219835466
894,0.7694350734586675,-9.279558969998773,-0.5518533827736906,-0.004382526916692038,0.38448031962304374,-0.011820977243302978
895,0.5373063766429046,-9.475789054387509,-0.005832215167913213,-0.0005714275760700051,0.38287116782996333,-0.012391400438536388
896,0.30079335842579136,-9.390012146335145,0.2165756435841561,0.0009413433313898943,0.3803947369430738,-0.008767436055039528
897,0.1212436720931054,-9.013065894992092,-0.10853481563773676,-0.000892175591461438,0.3771580198551952,-0.0025293385235361917
898,0.04682248469792672,-9.02686358730975,-0.24006760886140624,-8.470739358782727e-05,0.3779995756762715,0.0017234216437892948
899,0.3044079729223367,-9.365592348551452,-0.047084610306631754,-0.0008940342776149491,0.3805009289986807,0.006769071145764342
900,0.5535110362550634,-9.680349012443553,-0.3054628886340242,-0.0023450850713338674,0.3818420975664262,0.009410997257968389
901,0.6314562497844556,-9.71499928483897,-0.47514404855254144,-0.002059423845639752,0.383112178770587,0.008334271196108727
902,0.4799458897581466,-9.45410667121048,-0.4123006985753739,-0.0006162547614344643,0.38429357295067573,0.003917233710593626
903,0.1729584917530514,-9.22250527179953,-0.6333365671362544,-0.0030894444423252053,0.3834583210602617,-0.0012044250417070092
904,0.34891939325371185,-8.967870980347524,-0.18394981568271895,-0.003910776816117797,0.37930349448723394,-0.011230639331892002
905,0.4744331074850933,-9.291295820530937,-0.23977994815448564,-0.001130109386469714,0.37623614098756275,-0.01220490843360877
906,0.2467609930041486,-9.581222758118155,-0.24588233190295639,0.0010676985668479294,0.37485745022805006,-0.010426564742674265
907,-0.19552351127609968,-9.57365647309555,0.024768858688005265,0.00012537577981721227,0.37446421815979847,-0.008266822362429063
908,-0.10200741395716312,-9.540667445605171,0.2640685989437673,-0.004095721982839319,0.3727091936648267,-0.0015188382411364901
909,0.33891118822216576,-9.906409751932841,-0.05889905641622759,-0.003411593448649548,0.37264957949515565,0.0011502993265509083
910,0.24953559953670787,-9.914784233870641,0.01952455953145503,-0.0026090117585143052,0.3726244215657476,0.006167742748962678
911,-0.17535168138521007,-9.858635200570406,0.18582218687807794,-0.001780681237328663,0.37384865115609056,0.0072720231859617806
912,-0.47454078984537046,-9.78546787143423,0.10154650249386467,-0.0012897708815291379,0.3760701945112615,0.0020625418979111822
913,0.1453093630644727,-9.369590090097256,-0.5718260454678891,-0.0020705077509182183,0.3769745616993753,-0.0064403122046759855
914,-0.11083285035906501,-9.561910860056832,-0.3246273145665137,-0.0020716941016935496,0.3770069264146286,-0.009120516084357799
915,0.11970340135891168,-9.730313292462245,0.11093836047784504,-0.0014534761101281596,0.3726139341020764,-0.010407479883716337
916,0.36072261816612183,-9.756286887045901,0.16101248506987156,0.0005536892363439158,0.36820739789166246,-0.005513069937753997
917,0.41187087868097694,-9.605180044687968,-0.2191759327157295,0.002094651080468556,0.3661680973626752,0.0043737715041440375
918,0.4735621261269635,-9.32771197789156,-0.41590400657670695,-0.002121856917732852,0.3661423927446301,0.010266956893920725
919,-0.07635228735240211,-9.439331622840168,-0.15726631388763018,-0.005517434353421985,0.3669627270842409,0.01616707487875003
920,0.02015342512860961,-8.698422907211734,-0.06435394258684868,-0.0051619703133053375,0.3684739217031568,0.012772378417657129
921,0.03288198920182245,-8.772135187005901,-0.13890373033559106,-0.004244928824957138,0.36815141338950663,0.004346933024924949
922,-0.05190960272444939,-9.636033424903177,-0.1759814768709964,-0.003007823294869406,0.36682380917575264,-0.004424460178476419
923,0.6648839390289185,-9.165028681652288,0.2690460613874757,0.002032602980356677,0.36942788476671223,-0.008618116533529386
924,0.15109599251882766,-10.616470927827535,-0.34458673751448177,0.00045785169967131015,0.3711696177712901,-0.009538073871170673
925,0.2428761754090995,-10.005199145907195,-0.7353049486595649,-0.0024356252374906923,0.36972363049282775,-0.011043330289646453
926,0.28447225605055476,-9.155394901028881,-0.5914234781003164,-0.004173789465395725,0.36627302003818507,-0.006527537502503399
927,-0.00930713616360361,-8.97067825495838,-0.04843302414283669,-0.0030412872941605546,0.36314846862299377,0.004128319152317891
928,-0.46464729588420367,-9.218755653051874,0.2662550122724211,0.001910713301891003,0.36396094763174075,0.013524997194400654
929,0.1472269895117726,-9.420678893235294,-0.40434570736161846,-0.002955029498382807,0.3588874019299877,0.00515741372717391
930,0.3175424037371155,-9.190218283701778,-0.18521363140106747,-0.0029585022150925514,0.3588695893895846,-0.0027033709508538844
931,0.47678463044507646,-9.275017559074962,0.07452304178210267,-0.0004168012231414866,0.36020224114872934,-0.009900473911067296
932,0.726116146330597,-9.871225237172036,0.10177182044336062,0.0015304022728220886,0.36003469633231777,-0.01480419922555265
933,0.7892762330015015,-10.568269814691705,0.2760037424437335,-0.0009813035273659573,0.356583033249585,-0.013973550468387637
934,0.5820207934730008,-9.451162345486331,0.08695519941642704,0.0014897204244751776,0.3574148008577228,-0.01225312619677385
935,0.4216739804721772,-9.075528442366434,-0.09449359760836981,-0.0016840846199015517,0.3582280012889849,-0.001724869258381322
936,0.3213137886632658,-8.963355609962438,-0.19231251487290207,-0.004677786336759495,0.3594776080866487,0.0071754268556086555
937,0.27364391965920176,-8.998030908269874,-0.2603041354055855,-0.0055285021562434256,0.35926333444687925,0.009512849543838327
938,0.25210094436060326,-9.451597114053948,-0.4840478420052807,-0.006341811327817362,0.35324454786021026,0.006127588912472275
939,0.985170964870855,-9.206234004988787,-0.5806241093437803,0.00038302538981780385,0.3532694219498873,-0.0005826850865982751
940,0.8292515557157762,-9.653510514050943,-0.5672577041508533,0.001454622395105844,0.35070323496816136,-0.005442047470240858
941,0.780178767678749,-9.806222012285499,-0.5622314621258389,-0.0006189007582748536,0.34813499881124466,-0.008425616983944766
942,0.8375392133481763,-9.612462877212286,-0.3639828290568843,-0.0026948930543342466,0.34750048972163966,-0.008214459165254333
943,0.03311579218839491,-9.93150671828514,0.529609998467744,-0.0010755236137277085,0.35003074866376327,-0.002269908595191311
944,0.4899247911336765,-9.243151602161209,-0.5017682728786941,-0.002768523793607383,0.34570296884415347,0.0011210240206999732
