,acc_x,acc_y,acc_z,gyr_x,gyr_y,gyr_z
0,0.1732773130834058,-9.363625338732989,-0.28176232081406755,-0.0005267055453329874,5.974200656023872e-06,0.0005295932453815582
1,0.2336672498813695,-9.375414772867586,-0.21872212143876654,-0.0007285927040483126,7.042145587923168e-06,-0.0003252714930875012
2,0.25391213663700285,-9.368772314011052,-0.24719538601350383,0.00011411850204094853,0.0001049326478389141,-0.0011735794704474322
3,0.2144601724912013,-9.366855341404396,-0.18517724268134572,0.000964146583603327,0.0009466786437913203,-0.002018943642842184
4,0.14507049128044744,-9.395682225408724,-0.26897607201296425,0.0017905943449671056,0.0002980822253277133,-0.0013739266939265696
5,0.1679303569785089,-9.393993242225518,-0.3199234123712975,0.0010461102500924375,-1.125800556971156e-05,-0.0005258621715555427
6,0.25081569051330466,-9.383091424873141,-0.2800244863323761,-0.00031398562186207813,0.00032437031402854133,0.00032137772704274634
7,0.3143125641408961,-9.394657780655939,-0.16910663973701628,-0.0007227483680614052,0.0010726434585755294,0.001067832553496454
8,0.21568265377638085,-9.429300097906289,-0.2409488364518892,0.0017865847666304593,0.0010471127012380615,0.0010825767172138348
9,0.21201191670283195,-9.365644305674147,-0.1925501845757624,0.0006292934666781868,0.00031032371903930725,-0.00042553552863157997
10,0.25181995573496274,-9.335243858996094,-0.1877186038332659,0.0005298448643149839,0.0005287716684275665,9.968028695239066e-06
11,0.2692234855303218,-9.364967146407675,-0.21182787341327713,0.001042362550523855,0.0004117216269258953,0.0010750914094716398
12,0.22322342721585053,-9.433456614907398,-0.21274507142817475,0.0010295331811000408,-0.0009646204226251627,0.000959254366172374
13,0.19820510848924455,-9.404264982144788,-0.1333273187077816,0.0010433734626798185,-0.00011436585880221513,0.00010977855618316257
14,0.2576715004693883,-9.371161132632338,-0.10533006305230812,0.00031316085429628,-0.0007524295790533658,-0.001501537711190174
15,0.2654073216529552,-9.393224883141727,-0.1913734020962926,-0.0005168054475401415,-0.0005264305397710352,-0.0021404569477695735
16,0.2572422361851615,-9.408453276980861,-0.2677946985821803,-0.0007191136485494848,5.597064935357184e-06,-0.0014927243688201755
17,0.2758806926910251,-9.365493172642175,-0.23113681997240929,-0.000107528361075324,1.0940279134532757e-06,-6.318076057889951e-07
18,0.2349853640032993,-9.371366893053299,-0.239598781917596,-0.0009437110232926923,9.601617576897015e-06,-5.544991072314099e-06
19,0.26047063020660594,-9.371199674223291,-0.2437173214085098,-0.0003076846090881695,0.0007521853875071505,0.0007520208659355963
20,0.3147817867376368,-9.38304550575025,-0.24940217249887892,0.0005330144730154099,0.0010592466646157455,0.0005382540013160624
21,0.32085610747542587,-9.400114858750527,-0.23833201210650218,0.0010523477635120493,0.0007305143662616657,9.771419364650336e-06
22,0.24346668162477855,-9.407398078365018,-0.21458960183386885,0.0008297575507804298,0.00010171799153693383,5.408695406658654e-06
23,0.2636737852116525,-9.374763629899071,-0.304223815458131,-0.0008342392120771039,0.0009700295252622951,-2.4712780938847155e-07
24,0.13322556199406044,-9.407764045723498,-0.24093320512785438,0.0004290300304287688,0.0003108267684103794,4.046647076094703e-06
25,0.1394127097114898,-9.394438218628707,-0.21555017392605547,0.0005202688044618329,0.0005315173066650069,0.0005432888162992136
26,0.22670779527054707,-9.373766580534372,-0.22618324133659753,2.519714640493051e-06,0.000741376028836093,0.0007461415268461554
27,0.28298115731447254,-9.389924328976637,-0.23661426667701585,0.00010957124453318317,-1.2431913852199071e-06,-0.00011049280049426698
28,0.2555572310179976,-9.377774257495403,-0.2301439378416018,0.0009512256267533137,-1.0792571624227512e-05,-0.0009592259707341173
29,0.24041688992560925,-9.381902048622813,-0.18664144423692186,0.00030610391652155495,-2.6105237284857627e-06,0.0004380008270661253
30,0.26941969846507596,-9.376235767474665,-0.20659499528906675,-6.838561669552494e-06,1.3020310056444732e-06,0.001066888150509
31,0.30351943389601554,-9.383758191951,-0.24678781951341258,-0.0003231585531255051,4.1448748682691005e-06,0.0007399639080776502
32,0.303175277149482,-9.416514741723685,-0.2470755877744148,-0.0008260136539283946,8.40412692292562e-06,-4.853433120513559e-06
33,0.28777938870233993,-9.398513210119757,-0.1971262086232221,0.0008463516705061553,-8.61105240395996e-06,4.972933812535553e-06
34,0.2834063221156579,-9.380932179956124,-0.17626260572323688,0.00030823451708541523,-3.1360764937634737e-06,1.8111027668769527e-06
35,0.21763920214472204,-9.375137009925892,-0.20124305276801502,-0.0005279481451318942,5.371513169679667e-06,-3.102080699647806e-06
36,0.1669313803681247,-9.383580637822183,-0.21444222181474745,-0.0007259932120587476,7.38648697912817e-06,-4.265740020054681e-06
37,0.19182328112658822,-9.397721865709837,-0.17232498684724107,0.0001109104957455494,-1.2583864811317254e-06,-0.00011184331556462262
38,0.161993747260247,-9.370481337996138,-0.15290515246592024,0.00095256487796568,-1.080776672013933e-05,-0.000960576485804473
39,0.23273219385325547,-9.3740792500416,-0.23927132659597633,0.0003192382617910379,-5.351035503868056e-06,-0.0018186832165756565
40,0.21564558051536237,-9.379112045352107,-0.25408801502140793,0.0005319164671936928,-6.00716750368597e-06,-0.0005122048100141035
41,0.16519994790007972,-9.389260576225137,-0.2683575052222552,0.0007152894621510821,-0.00033159083218950707,0.0010695552762769968
42,0.16014077816348346,-9.404002874954461,-0.3403046940735365,-1.546276010491801e-05,-0.0009499288199250302,0.0009490587737744986
43,0.18179124629227705,-9.37818319597703,-0.2683969023007915,-1.6224785251438438e-06,-9.967425610214284e-05,9.95829637852768e-05
44,0.22850020938608842,-9.3708245657804,-0.25029070500176254,-4.8302772583083e-06,9.196627975409249e-07,0.0007535744824100496
45,0.24656061188545814,-9.399223511450757,-0.23318373982025434,-3.3751260780728046e-06,6.426086381842326e-07,0.0005265554649016459
46,0.22303562932978085,-9.404233935779551,-0.23353831317646184,-2.0965939246508554e-06,3.991819373795137e-07,0.00032709088880462375
47,0.1816641802726418,-9.348475046440344,-0.26085054937530855,-4.262958979561643e-06,0.00011455982532628365,0.0008397461835068523
48,0.26537932370398637,-9.344515701602226,-0.2434000382203227,1.5049042602938341e-05,0.000963772598573702,-0.0008633759801888292
49,0.2156121135185345,-9.370770728667459,-0.24610771001322984,0.0007535658948270142,0.0003020334399932184,-0.0018159814967951154
50,0.18057644712240659,-9.364265146452228,-0.24622786580479444,0.001051806720234072,-1.1916957082136338e-05,-0.001046105875281385
51,0.15867630549675657,-9.338027117261314,-0.2392778786848605,0.0007218964479862478,-6.966170108361421e-06,0.00033202406843951533
52,0.14524820665154875,-9.324240759085319,-0.23386952597049349,0.00010720356715007946,0.00011423382603675431,0.0009535785974516363
53,0.2438781170160529,-9.37528382187187,-0.28023965239987714,0.0009572265109471742,0.0009559808001962631,0.0001090159709288933
54,0.1693352984989706,-9.405363434582423,-0.15723075330876463,0.001793142126303144,0.00029201158144071584,-0.0007429191206056161
55,0.17747764518030623,-9.38906079150988,-0.14459633300625713,0.002626919175734776,0.0005135457673182684,3.4544839170315986e-05
56,0.21277194331675123,-9.375187481443563,-0.1804623771417223,0.0024949113269135967,0.0007119487452104385,0.0007566913203665251
57,0.20883924748214344,-9.400710101750592,-0.17389447811389316,0.0010439325953673962,-0.00012552306588312052,5.5776488689779305e-06
58,0.2968844845392472,-9.396260569119,-0.18045041176994236,0.0010355640337903792,-0.0009768194202816913,1.4071051519754772e-06
59,0.31338379617479734,-9.397037464694852,-0.11170869671827766,0.0010420104722924373,-0.00032105205271782197,4.6197425143672225e-06
60,0.24937626528107038,-9.384627844519917,-0.15585261252481025,0.0010485385053016296,-1.1294703839307623e-05,-0.0005362296830004102
61,0.20199653913548382,-9.385803084633233,-0.19938995938977555,0.0010519005713735,-1.1934825911769197e-05,-0.0010607476484159003
62,0.23678910783965618,-9.40789952670316,-0.15269714990848854,0.0010519005713735,-1.1934825911769197e-05,-0.0010607476484159
63,0.21128966759907705,-9.344628852430686,-0.25191969939303266,0.0010519005713735,-1.1934825911769197e-05,-0.0010607476484159
64,0.24717042709389758,-9.351185569773465,-0.21048429290298787,0.0010422051901736189,-1.0088869474760347e-05,0.0004518346483672204
65,0.2349422779609802,-9.374826621827975,-0.2240547782571286,0.0015741435496948852,-1.5410708822693076e-05,0.0005331077702480525
66,0.20443436828425862,-9.405908795972026,-0.2417645445223352,0.002088991291024,-2.0873076298888707e-05,0.0003420943247020279
67,0.1938032608601838,-9.429291223267464,-0.20076519780819155,0.0018557973567688369,-1.764902215831763e-05,0.0010778324960594875
68,0.17070942818946802,-9.375755668975142,-0.16693919911077015,0.00018264688429437835,-6.258544843283221e-07,0.0010680015158086214
69,0.19625189094471643,-9.404639753519408,-0.2574478297075692,0.0007443499247152417,-8.08968240321441e-06,-0.00044269571721746706
70,0.19245777028820057,-9.400973883780733,-0.1938864942596768,0.0005123251158089982,-5.188798605753697e-06,2.357994433169208e-05
71,0.17026434264046553,-9.389528676012436,-0.13193855753164138,-0.0003252060401549365,0.0003337693194021996,0.0007361139183925602
72,0.15161420318347177,-9.4027631002627,-0.21401270365495068,-0.0009205081351335763,0.0010735585159491784,0.00011699157867173803
73,0.1366994362503049,-9.40423514766235,-0.22150169707135117,-8.979719291910649e-05,0.0010660927168612846,0.0009755511158443782
74,0.1632053138313604,-9.394440651107091,-0.24058833493091647,0.0007383426722835173,0.00030213853040065403,0.0010727596267616061
75,0.16458293891473535,-9.385104976214798,-0.26526997630356275,0.0005084426803400954,-4.569496687984251e-06,0.0005254876156415377
76,0.19294140741489663,-9.38662788979669,-0.25367570966527775,0.0003276374983464264,0.0003269537651863082,3.5239658249511877e-06
77,0.26968914060141863,-9.400043947960768,-0.19289798817980064,0.0009407652911002954,0.0010543496614740847,-0.00010724995389038182
78,0.21291680195257576,-9.391324449024234,-0.2054046138288808,0.00011005434888560584,0.0010618154605619005,-0.0009658094910632259
79,0.2890657815439356,-9.361743052431192,-0.28112377175299363,-2.4314162133575745e-06,-0.00044890754395818434,-0.00031075687848208653
80,0.28852885718754845,-9.36505087069918,-0.27649292109455753,-6.965128511704208e-06,-0.0010646163431470234,-0.0005502992011933289
81,0.24765540404685332,-9.383341196512493,-0.26700279351060047,0.00032256188564426394,-0.000737223872559985,-0.0007367242534588763
82,0.21859826611344255,-9.395549027999595,-0.313655396247659,0.0009300478138500812,0.00010882598109412131,6.037321785439799e-06
83,0.14065658084978566,-9.41995156828883,-0.2685293632016544,0.00010223371320985667,0.0009686299251560598,5.2946820359172304e-06
84,0.2295500785649261,-9.40613247425053,-0.2685192449093588,0.0007464984623325357,0.00029946836836771665,5.8726579504911095e-06
85,0.2614235307866251,-9.400991800132015,-0.26062468464193544,0.0010397116951329412,-0.000554896375597411,3.474127398663868e-06
86,0.22315765121661807,-9.387525446585926,-0.22937512721603998,0.001037862810949874,-0.0007429750974022321,2.5527202676781965e-06
87,0.15331904450495465,-9.355172808846248,-0.17904104778183066,0.001046995951467985,0.00010817568464703065,-0.0001125591599801229
88,0.14225324968357,-9.360049829458907,-0.16301707418804423,0.0010608362330477644,0.0009584302484700328,-0.0009620349699694502
89,0.22752464821949156,-9.39604743708007,-0.2452757257024452,0.0010574901515475524,0.0010529434153758483,-0.00029584831742897837
90,0.2665028566438029,-9.37766102582799,-0.24127730780198234,0.001585932811928292,0.000502926363999345,1.1831191793455238e-05
91,0.2832740088814278,-9.349522779607067,-0.1937833547813399,0.0011116384539462342,-1.1310164928796648e-05,6.531687296886194e-06
92,0.3082228201325934,-9.363655817833305,-0.18111494788034743,-0.0008100471194293357,8.241678297759197e-06,-4.759618076429225e-06
93,0.2827233798920143,-9.416741994860931,-0.2684268987495045,0.0008623182050052143,-8.773501029126384e-06,5.066748856619888e-06
94,0.2679376418304821,-9.391763001532826,-0.22283909981948163,0.0017782442051786575,-0.0007755628404477318,0.0007671722481950646
95,0.26186696114739144,-9.38154008448126,-0.19483817985698007,0.0010103122521020291,-0.0005280636031254844,0.0005232102974224486
96,0.2541089347141091,-9.389904896627336,-0.16507220258769711,0.0003259190373143809,-0.0003366984126680288,-0.0003335920886787147
97,0.2292463850999282,-9.396564006867536,-0.11999129208860096,0.0010414415339224,-0.0010758859447047,-0.0010659599985343
98,0.15563479346203207,-9.345988500581226,-0.17814284329963628,0.0010414415339224,-0.0010758859447047003,-0.0010659599985343
99,0.14293138543708495,-9.34614833594096,-0.30970243939429165,0.00029108733783578185,-0.0010673724530818277,-0.00030929490048362126
100,0.19938828635505718,-9.38180145353436,-0.255333524281676,-0.0005416854332890177,-0.0005121961414639897,-5.6889182721379606e-06
101,0.23940864609117313,-9.397801050929537,-0.14930742592105004,-0.00038962733537275347,3.964193041532683e-06,-2.289344982570344e-06
102,0.19537791859081727,-9.366077918099295,-0.14333916927078916,0.0010450620097039,-1.0632794906124718e-05,6.140502093113179e-06
103,0.12080408392497279,-9.383661978851945,-0.20625112557272826,0.0010450620097039,-1.063279490612472e-05,6.140502093113179e-06
104,0.1226480796471878,-9.398146142697197,-0.15810178371962474,0.0010574119497564114,0.0007480651284027211,-0.000751862524720592
105,0.17791931735161975,-9.407530003115431,-0.18815580829361014,0.0005126893537734581,0.0005118485370347,3.559361552467571e-05
106,0.2179182437861114,-9.407814463539005,-0.2367792897159977,-0.0003352211711059154,4.6431006306555624e-06,0.0010649586629935628
107,0.21620806136815074,-9.389590277226342,-0.2356283128328067,-0.0008109160600439725,0.000131017448562939,0.0009407489305838075
108,0.3340828322915957,-9.320366858518815,-0.2364247780920688,0.0008752895459706235,0.0009642568330590979,0.00010109948752748483
109,0.2341015095458499,-9.349578836020914,-0.19881545381011367,0.001065299377003168,0.0010514565744048398,-0.0015141703134572296
110,0.25228015051074515,-9.38106422822144,-0.20399699183240658,0.0010549140475826836,-4.39162635014435e-05,-0.0015791136572421258
111,0.3048011150317891,-9.402907201924819,-0.219311530687312,0.001039288346637456,-0.0010754759876491719,-0.000730039945289926
112,0.2675706076352027,-9.408932713362065,-0.21164097919877467,0.0010370082787097027,-0.0008299028416852421,2.1268568701908975e-06
113,0.11457396619172798,-9.360852666619982,-0.21524180523734962,0.001053745401863815,0.0008726898671117489,1.0467944304194872e-05
114,0.1353293298581331,-9.396196815142467,-0.1381660248337202,0.001055521047155,0.0010533183238868,1.1352852211556028e-05
115,0.21172386284407796,-9.390614312112568,-0.22241849738631309,0.0005169285456903316,0.0010587981361399115,8.188228149185105e-06
116,0.26136754929696476,-9.364470224629184,-0.2758462580964628,9.31679088793759e-06,0.0007278677356598683,-0.00033303134658184755
117,0.244022087175308,-9.360219998551617,-0.1675485170283496,7.630003063424597e-06,-1.4527178435741502e-06,-0.0011903614020121551
118,0.24931442382901361,-9.41717722127327,-0.2408590575257024,1.3106860831409643e-05,-2.4954866262512186e-06,-0.0020448093015905645
119,0.2571895325062437,-9.384837282798642,-0.25140082134582514,8.78337044814833e-06,-1.6723137422988084e-06,-0.0013702989466897126
120,0.25047528682304604,-9.352988749716598,-0.32029802237017585,0.0005390388641597796,-5.444901559337385e-06,3.732074858939086e-05
121,0.21902246033079864,-9.34740734623835,-0.3091419071562404,0.0007078450217855947,-5.969388197322763e-06,0.0010710874382061516
122,0.16357837284510213,-9.368804787992994,-0.1584567321355186,-6.838561669552495e-06,1.3020310056444732e-06,0.001066888150509
123,0.11594734296176291,-9.366894122468063,-0.2339508013287647,-6.838561669552494e-06,1.3020310056444732e-06,0.001066888150509
124,0.17473497553473183,-9.36926113018589,-0.22349956546173166,0.0007468637624480716,-7.249448356986382e-06,0.00030684676478232666
125,0.19716732317786526,-9.382538744496465,-0.2203964773069446,0.0005051389636977116,-5.139445267570235e-06,2.968060110402121e-06
126,0.20940859126278732,-9.389373608054704,-0.2043098435341811,0.0006623982361927132,-6.739451368642644e-06,3.892073119152027e-06
127,0.2483418841388267,-9.383136031210947,-0.16597093228446352,0.001847884515385194,0.00010558389819781186,1.1459793243248813e-05
128,0.2954917925082048,-9.408902656500961,-0.1984052314479424,0.00018310260448774923,0.0009739034202703918,5.799356709392113e-06
129,0.4379429939855459,-9.39706875751486,-0.24670157877531967,-0.0007488218011945663,0.0010734448258037917,0.0015317677290406276
130,0.6691814789352335,-9.396246965488382,-0.2366830406165064,-0.0005131084358004099,0.0005213298278640324,0.0021343300352019
131,0.9061039867604546,-9.373532412288839,-0.21151927870606946,-2.7858347206116055e-05,-0.0003330324526776426,0.0038266252075151116
132,1.133084812787546,-9.331315219198132,-0.2108458366298015,-6.434786599890628e-05,-0.0009284071575325298,0.008594410659390898
133,1.6276777291519862,-9.443395887554821,-0.19567193941860117,-0.00010523505997688634,-6.773273153976584e-05,0.016283001478208537
134,1.8128060217155992,-9.37315443881838,-0.19042094594627218,-0.0001879993043784906,3.579421158549215e-05,0.029329885411194332
135,2.2975288349024234,-9.347287575619426,-0.23478149051306035,-0.00030036992177400054,5.718906550979554e-05,0.046860893532166506
136,2.841111455116665,-9.353221879093297,-0.30014609885194143,-0.00044263158947325707,-0.0002547400803179424,0.06853460805343473
137,3.306923368242278,-9.358670288137665,-0.34028263115391083,-0.00012118401549483625,-0.000575817842931771,0.09493659678425187
138,4.4062860276711415,-9.394336198419085,-0.28214401263680133,0.0030195765684176905,0.0019885981770149776,0.13083073353885089
139,4.7328129644203045,-9.333991104430737,-0.18089250578785626,0.0038231105820159565,0.0015273202344859495,0.17513007013401444
140,5.542994132765751,-9.275853804594234,-0.1242087222096766,0.002145186047071934,0.00020090831413736816,0.22701025083683377
141,6.196539006403474,-9.265342722044158,-0.10459138715500449,0.0015741942776707578,-6.927378737101383e-05,0.28794967058524445
142,6.542779366996719,-9.318021261328713,-0.15417019965119377,0.004359049176652561,0.0014335354274236179,0.3582797062734075
143,9.172589562374181,-9.382204779081412,-0.512166492707962,0.00637501905669317,0.0015017972872048097,0.4351418547583019
144,8.641731777583885,-8.892296447097705,-0.4127604601589613,0.008286100287993585,0.002357354141138412,0.529655990269967
145,6.826086963933082,-8.887788215667168,-0.10336922659194461,0.010124762164678116,0.0022053173075202957,0.63391219898828
146,4.210433348788425,-8.954976713185225,-0.06752899164036395,0.01064137557888838,0.0014652013023924884,0.7351991869732262
147,1.0545759069883018,-8.70698518642348,-0.5017012017174847,0.009115812621140914,0.000602117750488991,0.8217463404122334
148,-2.626003674906506,-8.59151912689714,-0.5314583930638915,0.007015435412198767,-0.0010060972726243604,0.8857676718739557
149,-4.823951936789918,-8.634309098104259,0.04004665929350665,0.008432926026972024,0.0018634534693636811,0.87763450697219
150,-6.184487639875588,-8.972606434549121,0.0663791588704409,0.009214686159419335,0.0024613265973912404,0.8481038677608808
151,-6.260500291543069,-9.256171183252892,-0.11424863866276372,0.010229866290736009,0.0025586644053319438,0.7943207016249978
152,-4.799618047471833,-9.201451215196037,-0.12435528834876673,0.01229044822528165,0.003511468159589842,0.7158235583995458
153,-2.4738766489254287,-8.969378319109184,-0.21622620879178645,0.013572203433798734,0.0008586556791687868,0.6423839340620601
154,-1.857311559592913,-9.309286851317454,-0.21257885820791342,0.01176945080656649,0.0013225026278939032,0.5850848076510841
155,-0.6971308185122413,-9.40512474950161,-0.15357220100472893,0.0078854571551044,0.002169055767064711,0.5462264097620924
156,1.0413745924444715,-9.21058745737513,-0.1249239800695165,0.0036546789547259612,0.002018785214183658,0.5276048258656485
157,2.774916980906201,-8.855684705651123,-0.2799854016703264,0.0006477100223214436,0.00047881225223378877,0.53141103716363
158,2.927432500835719,-8.652064319539612,-1.010854535692288,-0.0004212382370025206,-0.00032125233862492894,0.5664102709430007
159,2.4734475660070157,-9.014815158549048,-1.0378949086761324,0.0014999870073142906,0.0003896792989432845,0.6075897402708097
160,1.4048431483368056,-9.092980127827621,-0.4291296755632723,0.0059135698448173025,0.0012470570101772776,0.651684881707088
161,0.021734257587657735,-8.989974853092054,-0.1777421612339366,0.01084004901308984,0.001753641655023991,0.6925157705602698
162,-1.2860805278055214,-8.946851406200995,-0.716650379083926,0.014187969776237232,0.0018851390452636692,0.7239716450127598
163,-1.9971781254578977,-9.201047950165162,-0.20187760139317343,0.014092357826740481,0.002757033650933359,0.7401991079222598
164,-1.7797146273648274,-8.760794298140254,-0.2514407900265296,0.012544399975038706,0.002863588013006255,0.7464034029256118
165,-3.0775098427288743,-8.991611035612081,0.017552103721780787,0.009234367746673583,0.0006718703420358594,0.7431449781918542
166,-4.365858152532669,-9.325019339875908,0.19336642368570386,0.005489894174402842,-0.0010049705703057562,0.724781647470126
167,-4.10872763797029,-9.178828565814458,-0.03092014718737019,0.003124200394040491,-0.0001660412761013601,0.6925688353415451
168,-2.4623298171538464,-8.809988180956122,-0.03495693081251754,0.004941758106712068,0.0006421892653384941,0.6712368641343034
169,-1.1416493744164145,-9.06631050576331,-0.12557099096127555,0.006027622376327564,0.0022244230744083806,0.6475911222904078
170,-1.4134260464946586,-9.158904056360136,-0.20343508977251562,0.00860021114151284,0.0005447115842080919,0.6298216768403746
171,-1.9361625023852187,-9.151303840212963,-0.12139185409893832,0.01062180439429943,-0.0015177300857280606,0.6228794104487658
172,-1.4907092777457238,-9.148897029302933,0.14690360710073339,0.010347343048220247,-0.0009885922780049172,0.6264952308494858
173,-0.41828942309963113,-8.989357367019508,0.23187089690826557,0.008707682537662917,0.002435214985862412,0.6265020898761099
174,-0.13306168470431895,-8.946104471526244,0.08674066772364471,0.00767990888951082,0.0012533328369763268,0.6419190509015824
175,-0.7162858095718356,-9.020899160391943,-0.5146974326044574,0.006719416473142307,0.0001369481094576001,0.6595439711282924
176,-1.5452730272911048,-8.974769040823908,-1.0386184290580482,0.005791726349048221,-0.0003456248972142759,0.6729849178727199
177,-1.9431764808329355,-8.743813355637155,-0.999868062023258,0.0054193421522223525,-0.00020126723957232772,0.6811298901362013
178,-1.350434775617898,-8.93176674404591,-0.3538984202594965,0.007838527199616035,0.0006432554788844919,0.6965184469397108
179,-1.7422234499762626,-8.70621887780272,-0.5314540967512325,0.007383325393540793,0.0007186171767800823,0.6871777508207824
180,-2.972538253389378,-8.892759833502886,-0.27719957484141655,0.009299593010600732,0.0006962853570271177,0.684734678665255
181,-3.4481322290194925,-9.052376401828491,0.05457215737648486,0.011333678269980434,0.001013082651859502,0.6786718298515884
182,-2.2465734029692674,-8.854511029900713,0.13350330896909526,0.011183827669615677,0.0015836715572401432,0.6625325097474171
183,-1.0649389646511103,-8.854573539594806,0.41050509433585086,0.009513257213335003,0.0007473138111573796,0.6608104139701646
184,-2.2795208721110023,-8.766597022533562,-0.09875741439656559,0.007155956032049138,-9.455423196514875e-05,0.648265423367046
185,-2.5661347635868896,-8.904220216335489,-0.20887843043086024,0.005251001112406317,0.0007383696886660903,0.6407507984217605
186,-2.0201966231765818,-8.937645292268275,-0.040335199710255794,0.004610375693379982,0.0017563394757149754,0.6399445967905716
187,-1.3530007322138289,-8.632609661881437,0.10686482312862948,0.00542352653779423,0.0014867430970112855,0.6431540702141179
188,-1.7148041107217091,-8.303292053604446,-0.0626505519391384,0.006260177522670658,-0.00022749153973019426,0.640588906316477
189,-2.521580700462839,-8.850161355225051,-0.15867325979449226,0.007769571035540375,-0.00038826302290569673,0.6535055072078193
190,-2.568474064699611,-8.713911230487362,-0.20027695454974326,0.00889938169093012,0.0012782792606691644,0.6551519800328393
191,-1.9685351707381207,-8.532531245386306,-0.3441669607411029,0.009400199667657445,0.0024453057872841975,0.6562809404491576
192,-1.4170417054262174,-8.783157851974575,-0.5211022380181419,0.009077365039155204,0.0016060562947919318,0.6645178402533377
193,-2.8936036318099405,-8.51993759436385,0.12320943978020217,0.007413046313151683,0.0007686497479935377,0.6619429042815689
194,-3.0641715181272073,-9.000787194097382,-0.2478152665618227,0.00877652343545933,0.0014478057989881993,0.6624891465221776
195,-3.0680216863779215,-8.705056433961776,0.24713811167949482,0.008811268260690971,0.0022990495593194797,0.662225695495503
196,-2.6878419263383426,-8.384394494737894,0.5584123275866214,0.007655124544192263,0.002465859461807922,0.6592804644277668
197,-2.078071021110481,-8.629852288073614,-0.05346961815766743,0.0062683127545727375,0.0014882271161527295,0.6542300466212218
198,-3.1047843319292414,-8.623828129829107,-0.2200491467785835,0.0062515756314186245,-0.000214365592644134,0.6542217055337877
199,-2.965811587492125,-8.652689556214924,-0.3334844843469542,0.007073661984183665,0.001155850065073912,0.6464844923417994
200,-2.633259618247588,-8.714187296839366,-0.16848030674137474,0.007876513983001472,0.0006159109048966059,0.6508634950197778
201,-2.605606295221808,-8.79446347497213,-0.06919367768061993,0.008017733699984191,-4.5467931697927214e-05,0.6518626225109982
202,-3.033386697405338,-8.8852236334982,-0.2623018803057643,0.007122736452291886,0.0008032899772924108,0.6417072512594949
203,-3.22824091056448,-9.003678136746032,-0.4053143481526131,0.005403221928071593,0.0016820303397419108,0.6502404589976402
204,-3.2771473705427594,-8.969028939527753,-0.5089640912949691,0.007519214597610709,0.00019124461618632866,0.649478745499456
205,-2.3337096044094805,-8.63478484175321,-0.7016071476440969,0.0083743496098246,-0.0003997429249132,0.6488977719203922
206,-2.1228875597312493,-8.227312573581058,-0.5785542078862492,0.008360932106441059,-0.0003971882933593827,0.6509910447548068
207,-3.5474675250587175,-8.091676470191874,-0.003291673766069942,0.008608206256088363,-0.0002609135805597543,0.6540818300282679
208,-4.131067921508263,-8.827268111839558,0.17757828321857122,0.010338981045694912,0.0005639815345704506,0.6464114112771343
209,-3.7017608445087244,-8.875670732484755,0.027834483434904037,0.00819314521340884,0.0014417671791780102,0.6503606436042552
210,-4.130198097506224,-8.727342185426817,-0.07655911794066336,0.006279131402501591,0.0023067132431088405,0.644781719112141
211,-6.288135419841306,-8.686237457593592,0.0532094252240473,0.0056625897286586915,0.0021132306835182062,0.6399695416761182
212,-10.224942707691323,-8.852468509102417,0.33639106858320117,0.006780394263909785,0.0005290205681976416,0.6353782037210722
213,-14.15811108442216,-8.793671682124138,-0.04309387864724497,0.009608959093392338,-0.00041032164103879014,0.5841571667714249
214,-15.421534381654558,-8.712440648067808,-0.20638382516142267,0.00954438451942161,0.0017573836282550998,0.5142890676830498
215,-15.246041986761567,-8.654108242013713,0.014369211819685077,0.008880204156527143,0.007571227165429997,0.4104628946792929
216,-14.166456759299905,-8.513221631964806,0.4025638560034563,0.007151828474465576,0.008091856036445568,0.2595830984661423
217,-12.588083682013847,-8.354558049948135,0.6383584446134687,0.00396332870270932,0.00017903668255400988,0.07168912626748565
218,-10.650607345243587,-8.821412511291514,0.22208239493289483,-7.197622160566239e-05,0.0008959018650956394,-0.08032291051863628
219,-8.858586075230956,-9.188185880360237,-0.09885446894666886,-0.005880067114175204,0.0016764417509989938,-0.1934671417919382
220,-7.911918912518159,-8.903949870138405,-0.2731974174431958,-0.008725621770364575,0.0007717736712684687,-0.27739404342687796
221,-7.67875934740459,-8.464516283920917,-0.387869248457995,-0.008974866881660198,-0.0010030130317813643,-0.3412575591394741
222,-7.816596350865838,-8.40612276266345,-0.4810891080884187,-0.007540783185762033,-0.0022330764637729524,-0.3942240840056745
223,-7.745390366797817,-9.033615892972126,-0.3824027994416837,-0.004702739963478138,-0.00061461190892751,-0.4428708601878518
224,-8.677473422186106,-8.615590140498233,-0.49476971618755516,-0.0033823013996482527,0.00023990809492856752,-0.49386447454034244
225,-10.259987957449155,-8.549248744756355,-0.2125832486330221,-0.0021747614930004338,-0.0006791671003463897,-0.5530040790908651
226,-9.886414761455603,-8.423922659295224,0.059726843523811315,-0.002631081979902883,-0.0010527202313534501,-0.6204160947316804
227,-6.32416949277453,-8.01090530500101,-0.03927167962652284,-0.005361266255490042,0.00045630894012751164,-0.6928909586984314
228,-2.809095711686006,-8.258435001487848,-0.41752292214930337,-0.007429849197514963,0.0012516133933445624,-0.7603564228085455
229,-2.2608726171772577,-8.980338966413203,-0.3630735376431503,-0.0096585008881453,0.0005199063336623328,-0.8052412478192518
230,-0.5873017675441037,-8.81480610871755,-0.45109208440047044,-0.010979142435846306,-0.0003343039734567028,-0.81910040207016
231,1.3646147248300502,-8.452283127945169,-0.6274313703579023,-0.011964662355625988,-0.0011502529403120908,-0.7971168741040026
232,2.074649759652542,-8.49225776364447,-0.6835244983360402,-0.012726174772241777,-0.0017963936057405912,-0.7461497138660209
233,-0.3752209894989452,-8.562792593901971,-0.1616162286728089,-0.011343882536665142,-0.0017581801896630542,-0.7008854091104461
234,-1.8771556653080717,-8.80772748189657,-0.004307565122580282,-0.007683201718274839,-0.002520292355994328,-0.6548320713602154
235,-2.4007628226605338,-8.537458289299021,-0.22659319919160267,-0.005425114363221774,-0.0010864927896201949,-0.6120996346603162
236,-2.5873799549869494,-8.381413644377085,-0.33463613956812105,-0.0039029738966052116,0.00042655677509904324,-0.5862756615208262
237,-3.0797548417764165,-8.800653836395792,-0.06258437302615623,-0.0023938008538692225,0.00013691424522787576,-0.5825577303060872
238,-4.308539188464084,-9.373161815419394,0.05349417796920519,-0.0015790418867689712,-0.0015731522510043171,-0.5817075072430304
239,-4.803989329473851,-8.786185774085306,-0.45766153864017267,-0.0036391515121493665,-0.000948834340825209,-0.6058316609942357
240,-4.901534409616758,-8.765854995688473,-0.20628561740696327,-0.005946935829822476,-0.0006751056255594845,-0.6368500790647055
241,-4.358648247612973,-8.939029425741278,0.21243790029480988,-0.007574739748886143,-0.0006925180496002488,-0.6662709483116519
242,-3.138299450809648,-8.816822922909049,0.22751265805389967,-0.008531410617441074,-0.0008508539242162143,-0.6906076833252155
243,-1.8825722993396197,-8.261333873873651,-0.023033688231383874,-0.010879447891503281,-0.0017089228547766465,-0.7170960473645211
244,-1.5143888602904299,-8.871800016945306,-0.47946177091355163,-0.011049944900389061,-0.001787924465445955,-0.7240441849996241
245,-1.4190728641096984,-9.046578715264932,-0.8302871155942351,-0.01272168436071506,-0.0017702760929162098,-0.7235003431444316
246,-1.1148694342348553,-8.76975602874531,-0.6632152442122335,-0.01352963401754024,-0.0014019271445943468,-0.7176071666923973
247,-0.48575156773521677,-8.383813492619796,-0.062427741015021035,-0.011780129430808684,-0.0005557039936475421,-0.7066489376595313
248,-0.3851971713148228,-8.707490371504502,-0.5108864038923161,-0.009382836401191516,0.0002929868653185257,-0.687844993895327
249,-1.5821035120568507,-9.1110490494754,-0.22654166946873866,-0.005482375237274239,0.0003506485186028288,-0.6659094578777908
250,-2.402256849075524,-9.161597831584666,0.09242567218375278,-0.003047592907215243,0.00033970444897996163,-0.653924165617479
251,-2.3953370330302857,-9.084070732131295,0.13832133250761525,-0.0024961728892514265,0.00034813673775773297,-0.6417643100488666
252,-1.85630074796777,-9.098191128734502,-0.05206608950972052,-0.0038448286159560993,9.601273536652999e-05,-0.627236594174018
253,-2.720876108577594,-9.1986618181659,0.38072546087066833,-0.007135933762688027,-0.0015860878385332798,-0.6383643998444337
254,-3.2068067135419733,-8.88045090391119,-0.10487653010924844,-0.008933939996826474,-0.0017133909247069655,-0.6408709935485042
255,-2.637909808498766,-9.023097198906095,-0.11070143509158877,-0.008883369360532063,-0.0005864394926458572,-0.6471249291288959
256,-1.6797323713421959,-8.959806990596345,-0.415983480413111,-0.008315204829605592,-0.0003221193067043265,-0.659216232242029
257,-1.0283895848489077,-8.50451701202981,-1.1447715394055047,-0.008096172479220577,-0.001617723895966431,-0.6735934937892443
258,-1.060143604771142,-9.280091557431113,0.08061211545895888,-0.007246149535423348,-0.0007759769218067926,-0.6744380564157672
259,-1.9102864092571759,-8.837092176480834,-0.2950324508206337,-0.00554834350407094,4.2672972433742634e-05,-0.6878055077904809
260,-1.2565081634551054,-8.834092332909876,-0.2622402236017756,-0.005012510208025362,0.0003248676171832749,-0.6840865847692212
261,-0.3173748496815822,-8.822131636815044,-0.3144090070042667,-0.005749543682397152,0.00033933984805793467,-0.6780540651969175
262,-0.16073510868164634,-8.618074652437844,-0.6057098765316031,-0.007419499231224365,0.0002128519789145367,-0.6787612978742932
263,-0.41139941746167885,-9.425463173789936,0.4183606560869798,-0.009182329468338028,-0.0006057984246950961,-0.6659673932958609
264,-1.7015023717628717,-9.07862598201341,-0.42767932465081726,-0.009370110933187995,-0.0014477167376153286,-0.659434339683494
265,-1.4039195832553446,-8.977657305381886,-0.6170744602393765,-0.00883071610337412,-0.0017329315385570324,-0.6568774125542507
266,-0.6970059454567769,-9.103355729836558,-0.45853050469271595,-0.008034338854630913,-0.0017338603587306336,-0.6506624326910246
267,-0.7210999343758648,-9.261667907604373,-0.3520230976676755,-0.00725526026500451,-0.0014442855632262187,-0.6413076194510555
268,-1.4273863168885879,-9.21644876014154,-0.07833339600637944,-0.006325715848533765,0.00023521057502112817,-0.6532486203155325
269,-1.6572554455785402,-9.427111498222292,0.16205127412968237,-0.006305328469998867,0.00038249522729119433,-0.6455932178833939
270,-0.9594070543838863,-9.220226017632474,-0.13386357390990705,-0.0062647641048924636,0.000945696675852262,-0.6510449385793311
271,-0.23945434189002135,-9.00408873497975,-0.09611784806233659,-0.006223661457544594,0.00143388955680635,-0.6566956678420132
272,-0.3366588217125256,-9.089867182583957,0.47313822629872354,-0.006530782065904793,0.0010083905376737272,-0.653585842387333
273,-1.6106685907133576,-9.236417379625914,-0.41887760055623047,-0.008211845772866534,-0.0015324080572211146,-0.656169123362539
274,-0.8835851855920298,-8.808504506484796,-0.8471786487384102,-0.007522989482683553,-0.00018744923915524776,-0.6626452328417495
275,-0.41847224119933635,-8.759860748398033,-0.968258364195097,-0.00726893700354533,-0.0001934480556180777,-0.6591839346345951
276,-0.45926430969244314,-8.946157680263626,-0.6208915596170411,-0.007277978769805446,-0.0006866013095769326,-0.6585332862524326
277,-0.7964263809794941,-9.13871827727179,0.009041630121862793,-0.006956322877317579,-0.000841554259381659,-0.6645698996324593
278,-0.6232226359491262,-9.207230389320786,-0.25532575393664336,-0.0053845807575274894,-0.0016921594288412183,-0.6500490449994286
279,-0.1799651375006789,-9.214160849283925,-0.2149610803146203,-0.00674565064308837,-0.0009697000119968758,-0.6559659107607394
280,0.07546794657147969,-9.127792529144934,-0.12524158065627503,-0.007311206009719948,-0.0006802749943821042,-0.6533494844163328
281,-0.30068594542686966,-9.060005933379912,-0.19582937503596767,-0.007332843035505139,-0.000676155403186823,-0.6499738789106788
282,-1.1926718702914838,-9.06810177189361,-0.44316255018661865,-0.007320165311585027,-0.0006785691840990729,-0.6519517383026605
283,-1.0589200894069368,-9.030998127541293,-0.40084819284412543,-0.007325637031587789,-0.0006775273935234648,-0.6510980919489542
284,-0.4249153467590806,-9.304676403722755,-0.7693822290714148,-0.006601341007651913,-0.0006766433714232229,-0.6439490485704202
285,0.1658058745108677,-9.407407810382542,-0.3623074583605727,-0.005723788161588346,-0.0001205078507199606,-0.6494370543210732
286,0.21010859575444624,-9.292466296305285,-0.03453910760232272,-0.0052388669046337325,-0.0003507792070163961,-0.6498762912581955
287,-0.40965092991637,-9.073936829564811,-0.3044468145519396,-0.005458655952104703,-0.0016016314836748706,-0.6399343427170461
288,-0.8926969299455075,-9.156586757176614,-0.2999387617131246,-0.006183266831906692,-0.0007616184632370452,-0.6561583784198949
289,0.40082448137595617,-8.980280927559397,-0.641454893333322,-0.007073635111572099,0.00011008444015162848,-0.6464095902604525
290,0.9312049089011092,-9.120961367362654,-0.5530867299973634,-0.006799367629007518,-0.00018362550808483712,-0.6447827859272021
291,0.7428312140574262,-9.308129963597155,-0.3731683031500236,-0.007005121740937455,-0.0006774450729358337,-0.6482018919944206
292,0.5414952152501221,-9.249238029386039,-0.31417918215865753,-0.00824027560972006,-0.0009598871579604624,-0.6494185268561515
293,2.0695371436289762,-8.790908741671727,0.03606342139716277,-0.0074810422617868425,-0.002660324164768277,-0.6400294441477372
294,7.570564751460543,-9.242623691926473,-0.18939962595049722,-0.007511039633231494,-0.005135617649839181,-0.6290736724192725
295,10.119503080116406,-9.099873642050849,-0.2427172297005941,-0.006586519787261427,-0.0070942086775321106,-0.6007433764421366
296,10.864267255134523,-8.838716436644479,-0.24908698118070752,-0.00429265001152731,-0.006218999872149045,-0.5307825688504894
297,11.286748929464473,-8.895665731815718,-0.3084077330404651,-0.0014579736377848135,-0.002582747082555175,-0.4055681108931059
298,11.511913798003953,-9.117008282911385,-0.22772103394795065,-0.0017273558554417646,-0.002380760152770593,-0.2330833507838598
299,10.722873713477409,-9.146284357366966,-0.5480335825274516,-0.001120169728902093,-0.0014181380552688943,-0.07557066349565637
300,7.326850357399126,-9.301253007144886,-0.4688853115024385,0.0007395401692840634,-0.0009889868828306127,0.0715012233521721
301,2.459358959342704,-9.445636691430892,-0.2498730570611365,0.002228059673377064,-0.0023070641899002216,0.1931164305633341
302,-2.2310241533921094,-9.446559045018818,-0.10015523414328137,0.0026615957095425294,-0.005921880951005848,0.2729561068113003
303,-4.4740126515351255,-9.277891606856318,0.17178998308271792,0.004175059008065182,-0.011027440221123973,0.2900178415007282
304,-7.556897751889261,-9.385671428238876,-0.31418648113593795,0.0029260230605701204,-0.009856603571932618,0.2652706491825469
305,-8.359776979695415,-9.558652596396296,0.0191970181112624,0.003494295496810585,-0.011131571626298466,0.17778101879200267
306,-7.462291926273043,-9.551653244990323,0.3474600903227332,0.004389877384606623,-0.012752214198399767,0.055487508892395794
307,-5.599204069596572,-9.31899179648783,0.12777635653223496,0.003792190369017663,-0.01259640418743167,-0.07247379189810738
308,-2.7990768582722896,-9.304174481004845,0.07846146694604075,0.0003660961929621232,-0.01099194248512738,-0.18776113474307893
309,-0.032770237566174365,-9.52399220882927,0.2075957774631596,-0.0033448025444304274,-0.01248886792899518,-0.2635750171782627
310,2.0808207383418957,-9.345587813048851,-0.17663207828253585,-0.005615194155047312,-0.014787089173757666,-0.30101367080957364
311,3.453555019839455,-9.1586926084986,-0.49642915058862025,-0.00621909806735597,-0.017340682414393873,-0.3051794129441279
312,4.160054767154584,-9.236276759131636,-0.43625731523552724,-0.005408764430184867,-0.020176684972861063,-0.282610576359344
313,4.454020012192203,-9.335854068987452,-0.6120594139435716,-0.004062065992255377,-0.02439680244699862,-0.2382207699787462
314,3.807320405830974,-9.294639319033653,-0.40417323883482975,-0.0004512361872285487,-0.027839933028476867,-0.18353798867470744
315,2.6997880550558193,-9.36122368402578,-0.3633234438750841,0.002227362221710999,-0.03178887456413727,-0.13150151378633304
316,1.3345081251229378,-9.429570084067272,-0.2538228645055925,0.0033539331012146694,-0.03600943589372881,-0.08914119158037498
317,-0.028617096482112747,-9.408381220066266,-0.025737381073853517,0.0029881300440215593,-0.04053319274913771,-0.062088972108943305
318,-0.922540869444401,-9.317056133208295,-0.2721857610646501,0.0020550394196065516,-0.046478063828421325,-0.05614595936274707
319,-2.0139422311367823,-9.386918812012475,-0.18160935735483727,0.0004941346701990067,-0.04928076475085455,-0.06838785396317566
320,-2.4092660342245353,-9.458471384034635,-0.14283789677627498,0.00010460312275298599,-0.05186328906697661,-0.09593337539380545
321,-2.4767138427196116,-9.443673680844082,-0.1433539655809805,0.0006859177651799194,-0.05374051570755434,-0.13374003667445242
322,-2.407289921975576,-9.367906520090576,-0.1558064270829311,0.0013425402493701594,-0.05479901425764972,-0.1765865852348707
323,-1.6264297047970868,-9.514332701851902,-0.2126485841393026,-6.744554493558064e-05,-0.05653853516246606,-0.22015114074059844
324,-0.8473541121038897,-9.334349523319723,-0.25069823804275737,-0.0007200549974656506,-0.05590918140046071,-0.2573659326797242
325,0.17084465501556484,-9.201828136044288,-0.2905136394690564,0.0002885441441264041,-0.05798247712655427,-0.2830950173358796
326,0.7540902990560192,-9.170922899667403,-0.26872022445193633,0.0006050052822502501,-0.060681557441919255,-0.2988513914519509
327,0.7820120790998866,-9.26804283875087,-0.20090344931490134,-0.0008875069363600426,-0.06268150680202908,-0.3068953182438042
328,1.636965009430342,-9.54342680457748,-0.3108314721050584,-0.0017462282626845387,-0.06608106755041111,-0.3086242102255551
329,1.4523753696308843,-9.155838168236684,-0.15343848166519225,-0.0002879364425807484,-0.06554338170552677,-0.302395702775081
330,1.0936137537063106,-9.147609057353435,-0.27431599140343055,0.0007556436174029704,-0.0670046359932645,-0.2949865364974125
331,0.6382730315325815,-9.29235193287609,-0.34813433656337334,0.0015149742802757916,-0.07028893948824333,-0.28804489965556873
332,0.23830545661479227,-9.307615864436189,-0.24125023856292344,0.002126961543627583,-0.07439451656692195,-0.282694237841021
333,0.4124714446730874,-9.042148991831755,-0.46128751313235616,0.0020770591417416016,-0.07779737497388214,-0.2801491833249016
334,-0.1673194550033681,-9.31904920496577,-0.39711981706031585,0.0028578612506705496,-0.08201128581838822,-0.2871220102570356
335,-0.34443302042146406,-9.379870630104431,-0.25118913708932744,0.002613979434506217,-0.08512542853500442,-0.30062251656263533
336,-0.4362122997987058,-9.350227964545525,-0.2587823069364752,0.0018598207529229103,-0.08732547387208349,-0.3168614436671284
337,-0.6189892066487648,-9.38014419952873,-0.4062383806187767,0.001263935412745401,-0.08904210202015109,-0.33355682986598184
338,-0.41451256321013596,-9.492448583784132,-0.08789838503705646,0.0013676018184775355,-0.09076761901264631,-0.3523493984643165
339,-0.1536755563753223,-9.50467846457163,-0.00796951226469527,0.0030345942118084838,-0.09171824623122224,-0.37112969852464506
340,0.08917825218937503,-9.367354761493736,0.01842614116086419,0.004235618653962197,-0.09376086015244964,-0.38933767975016786
341,0.39440110078125445,-9.150147066494853,-0.1575875557530174,0.0051535966254729285,-0.09524310147676729,-0.40433295157042015
342,0.7558853684762759,-8.989344084216372,-0.47197787439734473,0.005749458557207295,-0.09556790871592402,-0.41435353814766135
343,0.9343814501603298,-9.163498294007972,-0.2969252673021625,0.00492937150957847,-0.09726904587422515,-0.4194902775485471
344,1.3591055219570087,-9.170299545723022,-0.2142374607221735,0.0056729206302527195,-0.09978106174935637,-0.42700472757899727
345,1.0879353265874643,-9.350406552494082,-0.17117228965599368,0.005947180037633122,-0.1029252001953241,-0.43295968554450626
346,0.8874433286143266,-9.480364153192427,-0.32921740659377446,0.005954860176079003,-0.10597150722760564,-0.43883373749633603
347,1.0834590262058679,-9.403436285450766,-0.6851677862656259,0.00611750384176723,-0.10868911376809576,-0.4447490076523245
348,0.6494874206020009,-9.210978826703766,-0.826666191820236,0.0069311478398776305,-0.11210568969580473,-0.44646807326714216
349,0.5435030828888153,-9.34925324609291,-0.113510369705813,0.006996636746253617,-0.1155201656372783,-0.4529632293421228
350,0.39613535442405257,-9.152979232922783,-0.36193874035530627,0.008149168557986818,-0.11836521770615221,-0.45921938544360674
351,0.3651724705901708,-8.971901037467822,-0.7579244673880758,0.008770029431591069,-0.12056805078527488,-0.46741557285728874
352,0.5143140798321836,-9.020244474048296,-0.6186698077755172,0.008288481242429743,-0.12227816519258702,-0.47790624461108344
353,0.6028404384032384,-9.017255116662525,-0.03365239248072164,0.009157174679243553,-0.12399944290194144,-0.48559409670615394
354,1.0608919218521597,-9.283078974167784,-0.1875613989579035,0.010023180086443666,-0.12651443988505742,-0.4940822624353547
355,0.7009002186701946,-9.279479474660604,-0.16461084482444074,0.00980042665408989,-0.12792233838884653,-0.5090376900099525
356,0.37798859854802846,-9.305003189685824,-0.1939032720871614,0.010142656070822525,-0.1291648823479713,-0.5254959892103308
357,0.7513134876670857,-9.397302867190517,-0.49082971137301135,0.011428026966360949,-0.13089673669552782,-0.5392331132879791
358,1.7121131510716552,-8.82743578159554,-1.047829670033039,0.010640775376513574,-0.13260412557548965,-0.5494925323569758
359,1.8407716031666717,-8.798682809992656,-0.10041884772301773,0.012227808612944892,-0.13354527690454915,-0.5637168599624015
360,1.9260045257723333,-9.068905299101903,0.1301600195084934,0.013943750524493329,-0.13558918736732703,-0.5735665883611025
361,1.9300543599443984,-9.30437318900804,0.008669320590875922,0.015998031455135453,-0.13891213099205413,-0.5816255137220914
362,1.8651836800977146,-9.254280039599777,-0.07041800342142315,0.017899339711454788,-0.14319777869101472,-0.5890766966266291
363,2.010482377317618,-8.837912314718787,-0.13945556203627818,0.01703772668132134,-0.1474496785625776,-0.591664207051675
364,1.243418528190134,-9.186827898189822,-0.6578168910341975,0.018547177808894047,-0.14774848220100864,-0.5926243993954411
365,0.8620065733625876,-8.96546374470673,-0.8308858190426607,0.019711282757332596,-0.14718850560497793,-0.601643815926381
366,0.916657112257788,-8.902811952888033,-0.15109199769294773,0.020961555880274377,-0.14894978580564294,-0.6122290281967626
367,1.0959934616406142,-9.292880084754296,0.8916569130674576,0.022481516228091268,-0.15408423218836947,-0.6202449871905283
368,0.5123930651910683,-9.104919647254205,-0.37438858391516944,0.023327683996367875,-0.15921277987467708,-0.6296576157137537
369,0.9381472987793603,-9.466219280134613,-0.22631679466154142,0.02424948929034272,-0.16037053030355336,-0.6446362935572806
370,1.1180954554113145,-9.195261119830356,-0.5185193898912059,0.025164818888767277,-0.16124720469845416,-0.6582506596580897
371,1.5215492208434316,-8.875743526212254,-0.723487657816516,0.02640602649648253,-0.16323325212768566,-0.6677188441259468
372,2.1023061946993638,-8.992175452050153,-0.44970097918108676,0.027627762837860007,-0.1660289360209571,-0.6741130808111596
373,1.3507943898732402,-9.5385124105439,0.011611200174917378,0.02686820480674183,-0.1660350174121801,-0.6860722491300024
374,2.4392669764727093,-8.666866116687023,0.2561793707217912,0.029970329000024137,-0.17006069698354284,-0.6964303952982369
375,2.4463467096501303,-8.4288897869753,0.2163562557896463,0.031042851764748722,-0.17317123748001123,-0.7043443323987106
376,1.6319910542514096,-8.487010859568908,-0.052103460769196794,0.03217035408266227,-0.1753767632071679,-0.7130393097287766
377,0.9846193103825163,-8.596515949596371,-0.3295051208502749,0.03472691065709629,-0.1774349321759227,-0.723499571906196
378,2.5824238582874384,-9.156133602873352,-0.05022197892768845,0.03725202258099571,-0.1808758267399555,-0.7311867356543226
379,1.324903285924953,-8.467891516296678,-0.7958921430383448,0.038226903340885666,-0.18110959521707745,-0.7364687459617497
380,2.0922113947507683,-9.019818390664378,-1.2918228733509693,0.03968909481797374,-0.18113377468456054,-0.7445134218485006
381,2.7644493667213816,-9.450896586748657,-1.1940283222137669,0.04070157878367777,-0.18190115281908187,-0.7565129020615575
382,2.1747996153590154,-8.892038045316635,-0.6269341802687255,0.04109049583828792,-0.18330629364188838,-0.7706123686283007
383,2.3302018643723557,-8.10809172292642,-0.5327501486587994,0.04281759377604563,-0.18333372966159228,-0.7791414104360468
384,2.7425313406773837,-8.77986703349674,-0.2752114143333051,0.04298784703203568,-0.1849459668564139,-0.7916870164679782
385,2.0522191784319617,-8.874235357946311,0.005204243978278594,0.044718675392481755,-0.18842935965329602,-0.7980484008132045
386,1.493690857798476,-8.959768219331833,0.01015429043779463,0.047239443447803446,-0.19123019329702207,-0.8040762243704129
387,1.7541591726269155,-9.197674530405708,-0.1623949847824262,0.049651370271192825,-0.19227838644337683,-0.814900462050546
388,1.9841352563061259,-8.42924986227701,0.46237153143626913,0.051416450703550144,-0.19401963437334777,-0.8319759154905383
389,1.6091429190928193,-7.896847017096188,-0.0942964438892957,0.05468338091604881,-0.19736354091468972,-0.8410440990316064
390,2.0179946319632043,-7.948471720030342,-0.18301801276918428,0.05576592514401236,-0.20020714215600216,-0.8513522343326931
391,2.956533147565805,-8.303297546772333,0.10863819404945853,0.05652827074263565,-0.20203207144566385,-0.8587163588068769
392,4.033454591414305,-8.567896679548907,0.36948997434229974,0.05868325918689597,-0.20306917991280557,-0.8617525839457028
393,4.845587707001052,-8.192883734523251,-0.23476341710783455,0.06288105598064984,-0.20482057027992745,-0.8668590341705962
394,4.888790627267756,-8.849207326485143,0.3728985477769792,0.06401141914446142,-0.20495295357851695,-0.8807913906896169
395,4.3544271292286805,-8.793379626443828,0.5709248595279959,0.06543743708553824,-0.20731985026698424,-0.8864897025551574
396,3.6450896946748763,-8.390101484545514,0.2515565234544689,0.06710847455191571,-0.20887703900279622,-0.888569683534393
397,3.256973104862797,-8.074867115397286,-0.41828537934706234,0.06863527137958941,-0.20804191314806825,-0.8891812116651612
398,3.899270326017079,-8.109424933994855,-0.9665156065679651,0.06943135199586851,-0.20718975430008588,-0.8814877030495584
399,3.9486775396063716,-9.155022626928812,-0.059130217842969846,0.06949573192544095,-0.20393595418259758,-0.8785985828569509
400,3.456534426768996,-9.230202757836729,-0.6235225151503967,0.07125343546610421,-0.2017226174952028,-0.8795481709915911
401,3.7723248092498025,-8.843397163237192,-1.5605927740271484,0.07266690705548948,-0.20040715968362172,-0.8787162801183729
402,4.8459348588077455,-8.440089181759491,-1.7896848928817564,0.07265282633854514,-0.19955158908880521,-0.8752097840273734
403,3.5266996674934408,-7.941599659225647,-0.8067321020533044,0.07268308691789833,-0.1987044608749162,-0.8786210004443532
404,2.9347317693727253,-7.48328146961013,-0.4642160206369793,0.07579385385370943,-0.19867882041599957,-0.8731881787529516
405,3.6457911317708342,-8.476272206319155,-0.771369009957186,0.07799781387482682,-0.19811484080264957,-0.8742683029515221
406,3.5424921158470184,-8.709894117993064,-0.4984079381069181,0.07969932760970722,-0.19803568972003208,-0.8785274570995778
407,2.450406178601218,-7.520822903883061,0.4702971616753099,0.08170350003320692,-0.19907377091160022,-0.8819758534710799
408,4.593802523352022,-7.893556766378516,-0.20943282446991754,0.0850322787069622,-0.2008104019673983,-0.88196453721133
409,5.256989424785825,-8.602268002737368,-0.9776485668341822,0.08448835775721222,-0.19930910844198158,-0.8867810771450284
410,4.908812095689663,-7.926168362700417,-0.37473800586040973,0.08651540581887149,-0.1987979932998956,-0.8818586457173521
411,4.438803407450786,-7.301628059923325,-0.0969184359660887,0.08802345379570761,-0.19730902627986177,-0.880738815867823
412,4.311464800719704,-7.6008758745233385,-0.7241463651354616,0.08758109522603878,-0.19455872691356813,-0.8879956897489409
413,4.087262175208196,-8.164332766756011,-0.14349689890427986,0.08840632931048541,-0.19456514994387333,-0.8862826823121897
414,4.160257871115405,-7.659855464896213,-0.20430536708586147,0.09001150495129294,-0.19698814805138504,-0.8869890824496166
415,5.007266652344725,-7.48909919603809,-0.19966294181391708,0.09224040886605522,-0.19602468135275353,-0.881917677416061
416,5.4539002694168754,-7.625295508185655,0.35130485682339224,0.09510248550018743,-0.19349128791625048,-0.8753358732154297
417,5.002375439977048,-7.763944019268349,0.6455012838174028,0.09781284374066869,-0.1912889125939283,-0.8731404603356261
418,4.68531636226868,-7.229628583706015,-2.7881327182482614,0.09788689349333946,-0.19045012163926484,-0.8833832522198739
419,4.252179459273517,-8.026917427500894,-0.7912372820291703,0.09787325638322895,-0.1895938807644575,-0.8799448044691445
420,4.309153802966049,-7.78324684621845,-0.8193307630287002,0.09733363873735638,-0.1869696886846291,-0.8821717279841162
421,4.691373199629115,-7.416187111457631,-1.1093293262147181,0.09686890673215583,-0.18619745026239234,-0.8812439659531618
422,5.084566407330786,-7.608522171419927,-0.5654599238800352,0.09697405856284694,-0.18775967054749879,-0.8748546764835048
423,4.9734273376029785,-8.168970785021664,-0.6584497181911324,0.09785256021341286,-0.18521662407294762,-0.8773989837465568
424,5.030198629575171,-7.280010750666227,-1.137724964528944,0.10031578292243847,-0.18510520136215575,-0.8847777304092361
425,5.195160889100028,-7.338491444702454,-1.1137396298805529,0.10342206424277312,-0.18454846438747013,-0.8865205025002607
426,5.216084057196974,-7.815658004782888,-1.2102156060103888,0.10676276482978266,-0.18599928268881058,-0.8879267320407275
427,5.073700185856001,-8.067066201390709,-1.6273280283682778,0.10992762949992271,-0.18863991171939873,-0.889045361791484
428,5.22958355638331,-7.581557791874205,-1.535594905956903,0.11240140865893025,-0.18439356537441737,-0.877056312016992
429,5.034828717534929,-7.6607101297125695,0.06985339404099378,0.11258149139824801,-0.18255352467607183,-0.8804075544446294
430,4.9318476118931525,-6.798162225979748,-0.2411817214366283,0.11200307188738073,-0.18202644246915922,-0.8799353072455026
431,5.364681643239972,-6.591263005668138,-1.1673300794933232,0.11188256180259168,-0.18315739748968204,-0.8773796732360306
432,5.895662107116006,-7.351075179327429,-1.385524444245912,0.11268382318409968,-0.18538605833790606,-0.8753224982589207
433,4.317583541283941,-6.497872518476932,-0.06316369636791251,0.11351241457497535,-0.18624666960961506,-0.8753217549218569
434,5.198313889089985,-7.066438561427474,-0.06454377928489544,0.11751520492068251,-0.1814989878064366,-0.8688209384789174
435,5.775538589304622,-7.119450105935228,-0.6070249864999,0.11885557783415261,-0.17818431424008624,-0.8738358347990467
436,5.680830883089538,-6.922099859674434,-0.7752373828485791,0.11964729423913104,-0.17640114580778898,-0.8783668476052928
437,5.2947469622352745,-6.855237215134064,-0.3962067387038899,0.12099567246124518,-0.17506218696684547,-0.8766248578776237
438,6.14969989256573,-7.2625571922675,-0.7281964362803056,0.12104009800536313,-0.17165828579110218,-0.8783154644941651
439,7.613844448258881,-6.320045492632326,-0.48547280397695913,0.12102942597567587,-0.17227721715969535,-0.8776041077421094
440,6.887097080328857,-6.864672875082876,-0.9770432480935465,0.1204352162851623,-0.17252846915019648,-0.8761606073151915
441,6.016044337262677,-7.362865091710836,-0.8287567190059122,0.1203965211868244,-0.17063499083188927,-0.8812992972475269
442,6.18915507156327,-7.031444455222925,0.09883265953967292,0.12181894486667152,-0.16757265564135276,-0.8910850336016541
443,6.422980127354241,-7.0181192306309965,-0.7434166029185018,0.12510941122487693,-0.16930199220670755,-0.8850965897742162
444,6.261112184113654,-6.3475899178207325,0.2347423005102352,0.12687365328805156,-0.1694117398982452,-0.8855743356248917
445,6.076172327783654,-6.446009097611565,-0.4759004886381399,0.13084064665158146,-0.16944552909873467,-0.879861457549368
446,6.0558252627201306,-6.484249595925698,-1.4442518415332564,0.1335965330206002,-0.16870772835742676,-0.8754996488780795
447,6.32359662326182,-6.054025193668455,-1.5914365910200035,0.1334603212129289,-0.16700557491734552,-0.8773559761933332
448,6.933658702979894,-5.789682736959355,-1.0290750967280655,0.13267841069917985,-0.16530096178168094,-0.8833296765543689
449,7.931087632064563,-6.45702699821392,-1.6288201738324017,0.13261121364167733,-0.1652060485979678,-0.8796005426495264
450,7.210322797091196,-6.530477857913016,-0.5325942486286785,0.132604726071268,-0.1658001893720895,-0.8795027123479224
451,5.805359993198522,-6.334136999921481,0.12558066229949336,0.1340734465669983,-0.1658993273594455,-0.8750869951099246
452,5.04184789779083,-6.238425076425076,-0.7094992926131568,0.13722163542499308,-0.16439698175145107,-0.8676671083837667
453,6.5261077683979165,-6.498718305457596,-1.5848514458355405,0.1398431869884308,-0.16017877059946026,-0.8787321209804468
454,7.1314465816871,-6.310151308259602,-0.8372570600058014,0.14158913912416843,-0.15917153275501145,-0.8817219047058332
455,6.838362142303135,-6.437547028037418,-0.1733040092274854,0.14152357084516953,-0.1583203769469056,-0.882491063749427
456,6.531378726507142,-6.278757980569418,-0.6173404659664692,0.14108312644849957,-0.1567015066228622,-0.8832517858045061
457,6.6527637928279315,-5.694277019674116,-1.6789519057236768,0.14093601450338544,-0.15465231556407233,-0.8830852419435002
458,6.74754473108066,-5.543280819162106,-0.10334324500420669,0.1400497857998081,-0.15463442093626045,-0.875404937919311
459,7.172368858874228,-5.385563159749536,-0.26062770821947995,0.1361229402580614,-0.1521810969512449,-0.884745580621225
460,7.444493211012571,-5.596850628177107,-0.9745785341618567,0.1383976512433319,-0.15203458912171602,-0.8884124945706044
461,7.2559059397816865,-6.256820915590259,-1.0448718543819684,0.14378882723919956,-0.1521755903138612,-0.8880841261542536
462,6.731452409407051,-6.734290302192485,-0.44111687962502666,0.1489717576823476,-0.15120445083598366,-0.8858298911454607
463,6.765130915385175,-5.053175597382123,-1.2816416170114342,0.15147047206021877,-0.1495213796141392,-0.8815377686639023
464,7.116793763777318,-5.40645366574939,-0.9365607651039165,0.15555494720338744,-0.15028512852463866,-0.8804914581934868
465,6.75303345821237,-5.459430026980105,-0.6752395496829982,0.1539373602670176,-0.14814666016303418,-0.8856121569028832
466,6.0827109091701,-5.478568899731965,-0.34853351200446037,0.15278460818348535,-0.14626145254591866,-0.8856096603165102
467,5.748849013519106,-5.734095993293027,-0.017097795023585313,0.15424325015650797,-0.1462680103451015,-0.8784306350391358
468,6.72215783628698,-6.244049789538151,-0.2932732126828782,0.15174486559958675,-0.1462445641471224,-0.880153473456138
469,6.930933225008651,-5.62514245762662,0.007209024328148864,0.1531722423301241,-0.1454408362269607,-0.8729216011829534
470,7.3121623346232845,-5.743928738351503,-0.9592630735925856,0.155465444155819,-0.14282405028545617,-0.8741839015217596
471,7.739897495291331,-6.039021095163191,-1.2682635841323495,0.15729671990427962,-0.13944405399577173,-0.8808200257410485
472,8.154150678110122,-6.021102715801167,-0.5099462309097804,0.1585336621638901,-0.13657033693207407,-0.8864201985431355
473,8.729090887308086,-5.553771413605599,-1.3774482680590956,0.16101305154460926,-0.13573727684456977,-0.8804241562680131
474,8.562197269412609,-5.652441789581086,-0.293881248766105,0.1587762933580016,-0.13324332147510518,-0.8809456126421371
475,7.756907167550803,-6.053794724474668,0.25724759254857466,0.15741304869249173,-0.1330584378989324,-0.8764165023002748
476,6.993477210505259,-5.82676240399695,1.1512367336133749,0.15582975899996931,-0.1335115882118069,-0.8784660219064357
477,6.815430215028031,-4.962683827039947,1.7331755094928138,0.15457578625651042,-0.13299583580270133,-0.8892116267907085
478,7.524122205110522,-5.156876837042883,-1.8598753023367245,0.1579628280359239,-0.1304791114364405,-0.8917411984193645
479,6.6750799949452,-5.00512852593217,-0.45539893445555557,0.1604986688672414,-0.13037960981822028,-0.8894098603496481
480,8.10457150653248,-5.105210435320941,-0.6888034326782123,0.16299329249849837,-0.128605210423284,-0.8844263470334789
481,8.667596866162427,-5.031096057957797,-1.0780796696828407,0.1662320717827256,-0.12723169108381752,-0.8780369983700609
482,7.4998245575166775,-4.682224935305268,-0.6020594045766186,0.1693710552649707,-0.12743161195078095,-0.8741290403843008
483,8.411068704981902,-4.626021494676652,0.20342701580003314,0.1685749746486917,-0.12828377079876324,-0.881822548999903
484,7.440559553245922,-4.626004838316749,0.2176238660147511,0.16935661384930267,-0.1234597812122121,-0.8780898002941282
485,7.858882142898692,-5.242646900117538,0.04118543435011725,0.16843376184333647,-0.12253064413990211,-0.8774228751669495
486,7.840690347024633,-4.693094132806168,0.3201720294247662,0.16787754011021674,-0.12337422391649866,-0.8755754752191862
487,7.056285810456155,-3.1693196783474775,0.8789223144529389,0.1686867543110869,-0.12336298560884888,-0.8713158888406414
488,8.293249222881368,-4.56708228434076,0.0786902899803216,0.16955172736768848,-0.11996447366118237,-0.8704398370534071
489,8.709899741457365,-4.705968964018296,-0.02416192761133163,0.17048104426150873,-0.1173916461803555,-0.8809678725119744
490,8.561105581910988,-4.355687004521673,-0.2660771472928736,0.17368098928446835,-0.11666770359365905,-0.8812291926902085
491,8.125815974280066,-4.318229110450602,-0.05918466913851478,0.17521029830401919,-0.11513506893676119,-0.8796567499951267
492,7.796265038753009,-4.75013132325833,0.31247280477175854,0.1740798884873836,-0.11241329816000507,-0.8801373523894784
493,8.185011222043348,-4.700659827602991,-1.1190412941761516,0.17488870741182203,-0.11241659581858351,-0.8758634058916084
494,8.16509543311395,-4.9623454078544835,-0.7820461455995164,0.17255165534752664,-0.11239635830578529,-0.8789420450462171
495,8.482934789538904,-4.42258263931339,-0.4998897285194253,0.17128208902253078,-0.1099901556754086,-0.884759888341502
496,8.83965259639469,-3.9471258692618,-1.4058489064535526,0.17312943571717532,-0.1085400809026699,-0.8857480333139591
497,8.851545413032312,-3.871571950237044,-2.9910212359949306,0.17760559111390817,-0.10855920618839918,-0.8813195955933585
498,8.041817905015343,-3.4564275186483817,-1.957498210775921,0.18015856978244366,-0.10518082875985334,-0.8829962642053722
499,8.299173713755113,-3.9737634631994228,-1.3008990073309383,0.18503010804477107,-0.10507118604257575,-0.8773340787416489
500,8.21803302106452,-3.9008868122617026,-1.437220568303586,0.18595011581826235,-0.10508616550366581,-0.8821930186465461
501,8.25075759340774,-3.7155823532613734,-1.1560988259986926,0.18554040769388763,-0.10353563730142638,-0.8869124052756663
502,8.627086145167894,-3.8414002943863172,-0.11844207555867473,0.1852139308204044,-0.100474324600438,-0.8849910918655285
503,9.055765414117948,-4.46520982687182,0.42012167834575725,0.1835192102933001,-0.09874741521173118,-0.8790162557365302
504,8.796379945346194,-3.5043588128510588,-0.45870615022432093,0.1834024228936842,-0.1002940154226668,-0.8746793184724588
505,8.73803130234803,-2.594791220258705,-1.4123754946341602,0.18458099141638473,-0.0989992797820978,-0.8722057342087739
506,8.862152136577295,-2.6422542241172966,-1.443313558191771,0.18515892013319263,-0.09684435084459463,-0.87671901556861
507,8.969418048392177,-3.5403716674201617,-0.4872846155532522,0.18508784776796378,-0.09532748173570045,-0.886020363047348
508,8.620123829247602,-3.5635229081699986,0.01951223948060323,0.18760007774423013,-0.09450067434806372,-0.8851478019862071
509,8.468306506301861,-3.185003380498528,0.04158656637658367,0.18773303820005696,-0.09038796180077385,-0.8826391383928379
510,8.587997190978564,-3.6871362853874334,0.04833439630267495,0.1853639605607796,-0.0879071133149105,-0.8782687994947034
511,8.884494379790562,-3.8655821300880993,-0.188593646925966,0.1835391435436894,-0.0869610076565416,-0.8754941494119932
512,8.9287776502274,-3.300838234786412,-0.44474439135066485,0.18338284400212534,-0.08660862212324973,-0.8776180753289566
513,7.700474425053842,-3.0554399424529577,0.3440352246493946,0.18262908237419492,-0.08490922690701734,-0.8878608043910773
514,8.254166105411185,-3.1196136055115,-1.016863407072291,0.18498141933901274,-0.08567548403529873,-0.8866498025440662
515,8.490478868438096,-2.776059492510396,-1.602996469061866,0.18690663654568193,-0.08413456108717647,-0.885527548356585
516,8.687175427721925,-2.197520783935654,-1.0689346779269622,0.18858897767328614,-0.0815939409064485,-0.8830874607458095
517,8.901305178457445,-1.9787354451967811,-0.32659903281028285,0.190615361034224,-0.07923354435184879,-0.8802167632482824
518,8.62321694338091,-3.4029824803386415,-2.2181839951769455,0.19399404210986526,-0.0775673170006863,-0.8827505015046522
519,8.633767713015192,-2.91452260837793,-0.6215844927999211,0.19495709025374103,-0.07751007294002041,-0.8861244626535357
520,8.433231152635177,-3.0137152414194026,-0.057552007107118275,0.19520169313552377,-0.0756997716660135,-0.8834793136901257
521,8.55984763966008,-2.792612855584166,-0.4981155624724795,0.1948051959558212,-0.0739169059849467,-0.8787413788840577
522,9.16187469562118,-2.0747179039067003,-1.0283939529899095,0.19447008274418898,-0.07359061412168688,-0.8746509903139243
523,9.691589482505664,-2.139060311391924,0.413261290506587,0.19610381106988914,-0.07530685320860132,-0.8712341219897317
524,9.039947583531141,-1.7350181577091197,1.3156543588113567,0.19305958592838776,-0.07127193994916291,-0.8801022164174255
525,9.259454781091783,-2.1018483877504925,0.17592585435393715,0.19389297526138288,-0.0700453631997499,-0.8822152572911
526,9.317489436261418,-2.4244217781949127,-0.6677808645837842,0.19562439118002203,-0.06888515513205848,-0.8789907179599479
527,9.045134513638004,-2.2709463493178825,-0.5200876768561462,0.1961006545003306,-0.06614999201589664,-0.8733556142213573
528,9.91644557544343,-1.9557701669767436,-1.6147139159330983,0.1952705902044469,-0.06273028973825438,-0.8690748079995491
529,8.837363078942333,-2.0099009137528387,-0.6411246344880949,0.19523208950942944,-0.06259231383607776,-0.8680838870923653
530,8.237229499259564,-1.9960335130601599,0.32304824891184164,0.19292283435463797,-0.06197513666109064,-0.8775491166573673
531,7.9353486847370505,-1.8230107843927073,0.5048330188979183,0.1915604815348682,-0.06111849675678554,-0.8853188121049185
532,8.001258066536385,-1.7087193700968748,-0.07068306753045833,0.19293361219404304,-0.06046006947689919,-0.8856219607247471
533,9.140553811624901,-2.36459979474637,-0.21840492750092136,0.1962681845509466,-0.06049202424274895,-0.8838950106701506
534,9.078505932230783,-1.4914440757661072,0.0883216224411806,0.19721186289814532,-0.05640530955086019,-0.8788801123324665
535,9.201669975034342,-1.695053035689213,-0.877250301749702,0.19747791504213572,-0.05457309530444222,-0.8798168353201403
536,9.622438797385694,-1.7418538649368824,-1.337338705574831,0.1998399308397587,-0.05296593226108412,-0.8847855739038435
537,9.999931927583289,-1.1506803265387042,-0.5487208915281517,0.2038454243770985,-0.05045588027126011,-0.8883325686353344
538,9.333578630730344,-0.882453658080841,0.40674544093003373,0.20381581044407623,-0.047890772006594425,-0.879781986459372
539,9.687293184936685,-0.8226912595724898,1.210546706859874,0.19890063998442112,-0.04608587485572384,-0.8630533360388011
540,9.784925042915251,-0.981826845334506,0.45418948627189215,0.1973259232211073,-0.046769089046458975,-0.8441645810729577
541,9.6447439649148,-1.201369997966776,-0.6345777668018078,0.19531997726366318,-0.04607689541696355,-0.8316333686554878
542,9.3837437305517,-1.3036275502404826,-1.052979778643985,0.19095355642635503,-0.042980921048952334,-0.8259260032456756
543,9.182634937710903,-1.0778848101525962,-0.2665924547517772,0.1858812646548342,-0.04121372860172382,-0.8148473386365607
544,10.551554359561312,-1.3306857153560112,-0.7337716165565186,0.18320722951697996,-0.0394673187722976,-0.8012884698169659
545,10.27094441493203,-0.8889342395179582,-0.852695755631143,0.1836578165777426,-0.03533036685720177,-0.7918625816987022
546,9.235478724916367,-0.5791550836291788,-0.49142053875608793,0.18295678651470215,-0.032958731644332995,-0.7802192731502767
547,8.50962707703456,-0.7299029097331534,0.2264329194269568,0.18041347121325113,-0.033225464610609746,-0.7669208525566865
548,9.205328786239871,-0.7814592530544701,0.8893786014193976,0.1812507637066932,-0.031527461790589295,-0.7643458491494736
549,10.138281757997445,-0.8553397226951421,0.7715911178352299,0.17321004795573122,-0.03137987912853809,-0.7618309530620686
550,10.040774909809436,-0.8839933883488584,0.11163428935958811,0.17018788312592742,-0.030127324320168077,-0.7556267132331473
551,9.651272540214212,-0.949544732924813,-0.40174044491743055,0.16893376597686244,-0.02840301114634211,-0.7483368294671098
552,9.423487822530218,-1.0185602002981193,-0.3117205169869168,0.1674030973603981,-0.02667446880783851,-0.740046589423331
553,9.255095292639625,-0.8643589981641852,0.49740635761317187,0.16649608375023037,-0.02494669594734079,-0.7263816136765767
554,10.061071253505478,-0.15142684344763405,0.1169218363607536,0.167208865634288,-0.024058150774459157,-0.7151797307710909
555,9.560119285555068,-0.37783884768381587,0.13191624451418751,0.16623201127286957,-0.02258212823852171,-0.7095657709211751
556,9.190668728366788,-0.596845636193307,-0.09029387210588652,0.16414569029229925,-0.020058155324372128,-0.7017891368079479
557,9.660557215582756,-0.49087150497326687,-0.44461417781748985,0.1621129240341488,-0.017711930115571373,-0.6886152511532391
558,10.376466028374942,-0.8501006762252062,0.4634328533406259,0.16200314711988736,-0.01939680847175556,-0.6741083980441765
559,10.251340587923577,-0.5698153027150479,0.02029286550022208,0.16277240803669907,-0.015343307424650912,-0.6620392233997864
560,9.129955164184828,-0.41829110078506615,-0.3322259052625747,0.15753921133539028,-0.014667598703268338,-0.6470602154165733
561,8.577303722470141,-0.10003500304582455,-0.466856758799465,0.1542231384810323,-0.015077849190412038,-0.6372124559304371
562,9.246177995429406,0.3073919376617816,-0.40510891638337765,0.15426785475392618,-0.014709775730457052,-0.635567977312142
563,10.369596730556808,0.086742052541063,-0.30682587498380076,0.14844069152325026,-0.012949698476679938,-0.6373021319888941
564,10.103607066500867,0.10381096101336693,0.03265136075577951,0.1449726033927536,-0.012849093607969065,-0.6316099125101927
565,10.066222145309005,0.013901675660251515,-0.2438652975370414,0.1433515641738716,-0.012208719665105498,-0.6195280946150825
566,9.680496364823698,-0.3433845956193045,-0.48442177270119857,0.14207052403057865,-0.01093503609090227,-0.6089919759148724
567,9.190288479301483,-0.6687217905474477,-0.3680193305311603,0.14037001282617545,-0.008653783541057456,-0.6011682861317108
568,10.229029827969718,0.042878384137304264,-0.1379617056426651,0.13864566809051784,-0.004361763931270318,-0.5866412647350044
569,9.84839329710331,0.4617070307351673,-0.16233877917808506,0.1360143937815399,-0.005812554233426753,-0.5655473347884958
570,9.040104241863382,0.35446382312719216,-0.6830345175294031,0.1346112215122982,-0.006876253862268408,-0.5527791749967481
571,8.77715232667488,0.0929574423315955,-0.7226086412291399,0.1317942832794804,-0.00650114962431847,-0.5477849336725171
572,9.261036096802385,-0.030531383510885843,-0.17865146353452965,0.1269590241030519,-0.004931508008984441,-0.5457686199322831
573,9.574246202398934,0.1386466569413028,-0.3084020732706494,0.12272548987217685,-0.004026203086969064,-0.5363965053908313
574,9.885595126839789,0.06958119194877693,0.5961579708543041,0.1217376996118284,-0.004805442259793771,-0.5311420526657722
575,10.012591682629072,0.10786158651434301,0.20302782406377007,0.12030544270260699,-0.0038086130560457503,-0.5303096255224409
576,9.854403415886543,0.523550986866246,-0.5238358127811592,0.1182075169429409,-0.0028723519414610905,-0.5235868868326092
577,9.569116198840725,1.0480656122672913,-0.8206332693290311,0.11614117459152284,-0.0030184517256935215,-0.5076726145704588
578,9.69709452155759,0.6051319368552364,-0.3560792122035095,0.1160178612254928,-0.0038486639480624324,-0.4897454063271155
579,10.072347900656787,0.6251284258241256,-0.45422807939727977,0.11514584331092642,-0.002204234724417815,-0.4775961091383229
580,9.811802069027305,0.7410892418987267,-0.5965279520706483,0.11242795748075163,-0.00045566896355530044,-0.46258341817516635
581,9.621763408123282,0.7500983420520313,-0.7580931393573856,0.11097398610048381,0.001277357465782205,-0.44955915726870477
582,9.754033290906364,0.6003285894740654,-0.7769609657048835,0.11103877467765896,0.0024307268700447414,-0.4414670323455328
583,9.726128243095916,0.4454891686285881,-0.24784267097847462,0.1084999661116537,0.0016091214251458814,-0.43807055547895213
584,9.49781702736249,0.632411597463959,0.4477674343144745,0.1075620063173603,0.0016007369874766766,-0.43052434908982606
585,9.48888686949918,0.5901066466733697,-0.1011622865817966,0.10669208382360554,0.0016156287111089055,-0.42529992487328583
586,9.690371015570115,0.3329039700202641,-0.4673507458270474,0.10347551618313788,0.0012529830161981394,-0.4218524756766905
587,9.925907585266101,0.18931029222175647,-0.17244154403107428,0.09813839238758472,0.0006472952136382243,-0.41782721511686455
588,9.790712439839618,0.9374925689432404,-0.22951876998027626,0.09473267225734958,0.000692796191591688,-0.40845435793566226
589,9.747406691293525,0.8564484668378841,0.1210893218015289,0.09211109590667854,0.0007351001146996062,-0.39493794221591677
590,9.799097366503894,0.816654715032535,-0.4744916042756775,0.08890869140100373,0.0020117671657020374,-0.3788306473042842
591,9.81115267463927,0.9032315114047327,-0.8665867742324898,0.08584800395769346,0.002165174816401192,-0.36177018008772366
592,9.666546730576488,1.041330986351487,-0.5550903113062492,0.08340682273959239,0.0008806510853192957,-0.34565235229423386
593,9.268659238520659,0.9616678190918148,-0.05707390730336771,0.08165157591601614,0.0009133050244551945,-0.33285428178540216
594,9.747004941193985,0.6748316011556594,-0.10845394987258714,0.08077777512539223,0.002579590426064536,-0.3283285075005594
595,9.66843784123957,0.6586588170945312,-0.501626376458663,0.07991890697086754,0.0030692049427635815,-0.3240620559262699
596,9.483881955719312,0.7651681503411023,-0.5655370073673134,0.07943742122434957,0.003482554210969169,-0.31738211044181525
597,9.482630129761572,0.8723735403084684,-0.12575622795189964,0.07920305933736597,0.003969966707833649,-0.30893131813585667
598,9.650060416624264,0.9216743737525306,0.2845426792844702,0.078324882369985,0.0031334386313131147,-0.3038169252623755
599,9.740401184548059,0.9066189285557977,-0.17217540235491324,0.07583864436583215,0.002310397769062433,-0.30119973887077583
600,9.761470688659431,1.010744109512292,-0.3802665063707382,0.0708625355078275,0.002133093415785403,-0.29312544222251746
601,9.757339993040835,1.0666344247617827,-0.5083789923646208,0.06533409023833898,0.0022016427343269883,-0.2825088855687397
602,9.7401069719389,1.057539903580637,-0.5576649895075559,0.060799331786318356,0.002260821956651196,-0.2712458839099484
603,9.674193324524577,1.1942935747309664,-0.22757817158418145,0.05821337402052752,0.0023009416948749895,-0.2593063729382896
604,9.861714535170957,1.1859831173969382,-0.25138584887622645,0.057240065305057444,0.001498172250751802,-0.24653171957624367
605,9.97006432903985,1.1646200306662287,-0.38574375492168567,0.05693905741566401,0.0012765638404446614,-0.2361925187649943
606,9.769498242633713,1.1580302801435194,-0.43324649026959344,0.055304316660083286,0.002914638768824408,-0.225188398795795
607,9.454049248064887,1.1415782516381234,-0.3327487320428052,0.05209120393869665,0.005610186627477783,-0.21276609755478168
608,9.813447019002902,1.019656355926423,-0.20496650416339007,0.04951072303067349,0.005649263596918879,-0.20168103448269986
609,9.811100290880512,0.9973736127724353,-0.05256624728178966,0.04937882630807577,0.004831655463278897,-0.19307665141506045
610,9.839282572016593,1.1683156104087875,-0.25368859790821613,0.046283111074447686,0.004639705848966317,-0.1820883874850566
611,9.716685077210512,1.2308745442382187,-0.3963833874660615,0.042822338485654046,0.004284094020321531,-0.17177217562231695
612,9.495240991431885,1.104835073345885,-0.31546337947845976,0.040436775238546926,0.0034668479777205936,-0.16325112415118384
613,9.57462604123746,1.0255399428548924,-0.209207850403679,0.03870130873921221,0.0026429876430259062,-0.15472625288715494
614,9.740188881300217,1.0169272609678663,-0.16798290028997695,0.036973229469998,0.002647845940596204,-0.146198106494352
615,9.752467015405578,1.0915061885188058,-0.3599852560659751,0.03524138808809502,0.0026760435902034333,-0.1370515331255706
616,9.743391134838802,1.229443669062535,-0.5575622181995169,0.03390983146837093,0.002699506784254577,-0.12847555092843255
617,9.744247466969144,1.3658325632075257,-0.5440610773536726,0.03302684228023046,0.0027169261233418425,-0.12117814963601066
618,9.633108397241328,1.3725627436000125,-0.1179855670821786,0.03215235244022871,0.002732727225241378,-0.1152067367976605
619,9.734308701124572,1.1674355389357396,-0.14044880820551275,0.028819924162970658,0.0036068530118871333,-0.10591734912259666
620,9.650457733152908,1.2108655588282329,-0.2856993743832948,0.02541441120498307,0.0032694269224634023,-0.09716480105544736
621,9.601884340738852,1.2477435426730605,-0.4633345374565412,0.022793032329146798,0.002050548772207931,-0.088241882980053
622,9.632580275574405,1.1931288814625873,-0.5005271865705818,0.020670068025395495,0.0009545710403524327,-0.07848303238048113
623,9.525290177958382,1.2169017361508678,-0.09101525838985203,0.017261780874536545,0.0018542512931554143,-0.06739870803214665
624,9.824729827505617,1.1450973090994234,-0.018272529792049692,0.013861331991129287,0.0019200383091269781,-0.05881552742688484
625,9.773071858878154,1.3283269056028173,-0.1837325812379553,0.013483860874421631,0.0013164048113114709,-0.04966240813529409
626,9.684208863512952,1.4228312654154052,-0.40321920254563726,0.013459083066110728,0.00128661869723966,-0.03945810894495855
627,9.700384032701558,1.3312877041676012,-0.4870117111724988,0.012181257779340655,0.0017795744625082328,-0.028748407689532646
628,9.699421789673613,1.30645767589729,-0.22989421151830822,0.009603343891941223,0.0009644721570995966,-0.01937481178458282
629,9.836494282951106,1.3891055304274418,-0.23282477719223119,0.006198758531066415,0.0001604863178800807,-0.008339150504693405
630,9.0687465848534,1.7547282491976537,0.0756453091701881,0.0009499350576101363,-5.0860053791445735e-06,0.003969543675615894
631,8.456690106168942,1.9053676955898502,0.2584494597057492,-0.0033387329053718327,-0.0007692609500574193,0.006988480379432258
632,8.632177128330962,1.662668725868875,0.13599648615354606,-0.006707662730770205,-0.0007183941641358915,-0.006517506300084739
633,9.625693054685604,1.2812585818810507,-0.10663620435465196,-0.01312665022018154,0.005269716074737162,-0.03982784260969214
634,9.255592005119883,1.6143976458268186,0.7540405515456952,-0.02705131879733915,0.005529440291667184,-0.05819987692179471
635,8.907447122937867,1.6589193173854508,0.9072108805540504,-0.039395852749253904,0.0019257930480597082,-0.07187721289791167
636,8.765254985586232,1.503699398426756,0.5677233068589408,-0.05302565663100016,-0.002660658614069316,-0.09085909537161091
637,8.897862273196798,1.3418049919241009,-0.004038125754242977,-0.06993387307438348,-0.006582934056498846,-0.11647839447966252
638,9.273618175609862,1.4735439092350755,-0.5572341246119422,-0.09073433193773982,-0.009803274544138554,-0.13881835385457175
639,9.143361973608279,1.7923852309276371,0.5030930277934166,-0.10505740768562957,-0.015579313570147985,-0.15528978511943897
640,9.166322005005048,1.9303955605337357,1.0121257053132806,-0.12163601300381056,-0.016429634384140183,-0.1685094876709723
641,8.990520304013984,1.9121313798611261,0.8742973029040573,-0.13792269721225833,-0.015832714125470146,-0.1801494271044608
642,8.87240537970094,1.8427236211741582,0.2818842528896326,-0.15291307730896053,-0.016081058914824597,-0.19095025793684656
643,9.913071214424662,1.9219087533557244,-0.2714254311868855,-0.16792483161669952,-0.017642737038196177,-0.20043957783765318
644,9.54883409541871,2.1657479277343072,0.47897750962907104,-0.1821741977934614,-0.02003634702138266,-0.20241092837095737
645,9.5388687414534,1.7922142824130702,0.40400232529583463,-0.19576958692849827,-0.02245938693371867,-0.20856491145297312
646,9.351833669808292,1.3439767075051077,-0.11673760618580888,-0.2102851174960524,-0.023657868018558688,-0.22124616636405492
647,8.85656065947904,1.2095179498972253,-0.47657377774484955,-0.22569338595824556,-0.02410490864321255,-0.23790372766074805
648,8.500049617624905,1.556853042984815,0.1729398449989689,-0.23986090586757491,-0.026529517060580324,-0.24995404552879874
649,8.993760431540885,1.5006494558375183,-0.33141974351418246,-0.25316581691930895,-0.027299874939020603,-0.26617093147648785
650,9.306740436243114,1.3749431318614502,-0.4382660050841413,-0.26642268055297696,-0.029906912797038786,-0.28995804221123694
651,9.413685251544752,1.1586133949551778,-0.2533098768199227,-0.2809162427039221,-0.0331886969382105,-0.30957036575829344
652,9.256251624064328,1.0595050144912403,0.04182022677947646,-0.29582996319172206,-0.03625703502923547,-0.3173137395579416
653,8.693339452715696,1.6014204466004216,0.21468704578098746,-0.30760855077520693,-0.038683449602735676,-0.31056428028950084
654,8.959183329426786,2.2279325095993707,-0.9188973171467366,-0.3137131341119031,-0.04700847224295601,-0.3029732970444749
655,8.953367494641792,1.4936525490624226,-0.7595023240970874,-0.31406822564420406,-0.04930875066813656,-0.3071458040079067
656,9.072528668992568,1.1106978303350643,-0.28491647801720843,-0.3119318943452001,-0.04565461763839667,-0.3111434737577653
657,9.471890543505289,1.5200789066778877,-0.10324365666098914,-0.3093698502577239,-0.03879881651079069,-0.308863450092714
658,9.96937018895357,1.4844357181329544,-0.2748614888852045,-0.30686244263509066,-0.034557930536517005,-0.3019970714570102
659,9.336410790638324,1.524307845512939,0.04413477171547751,-0.302724228650598,-0.03618893052548626,-0.3026852763436001
660,9.311222607081518,1.8283846370192505,-0.8358559069956686,-0.3035156929292432,-0.040365636636457286,-0.29607600441573884
661,9.531296552804225,2.011435831919012,-0.8983675241410143,-0.3060901322800515,-0.04462524671332711,-0.2924696163602766
662,9.486368849666615,1.9293639919137542,0.06315096347587033,-0.30957318154021896,-0.04721191295038925,-0.29545895259669686
663,8.51306002689885,1.7470188653607235,-0.09978963455092668,-0.3162368442584928,-0.047149047165679546,-0.29976810215134014
664,9.203260330504886,1.8770083812928093,-0.761725731381282,-0.3164203327578198,-0.050485488999837236,-0.2956739854838205
665,9.61905398742262,1.6336858472990177,-0.28284941559682647,-0.3121408622856791,-0.05019609266059823,-0.29450127669533205
666,9.507690979864789,1.5941208777474338,-0.29549599783269437,-0.30867808020757304,-0.048118910381624816,-0.2952937322056378
667,9.028101452736552,2.0260284734711114,-0.7069609652115456,-0.307814202672705,-0.04616707737669384,-0.2965909841732162
668,8.806785556308945,2.797999929092091,0.8130992397315712,-0.30697802001048785,-0.046175584966357264,-0.2965860709897497
669,9.629845321360035,1.9587861353264868,0.724380075700906,-0.3070441101787439,-0.04783656336972111,-0.28653017487002735
670,9.187017766420919,1.48914384553873,0.08600405567477257,-0.3132106546605532,-0.05009720242885938,-0.2838359092173841
671,8.783326763923736,1.402172604758718,-0.36422169404576454,-0.32040079269272503,-0.05463524555610441,-0.285136478178693
672,8.84659063002703,1.5159371700056141,-0.48200173956447157,-0.3253208452929144,-0.05961574513182399,-0.2867570038335502
673,8.652217538381862,1.4539574927869077,-0.8407379959764452,-0.32699656278601275,-0.05874454268930042,-0.285055367646668
674,9.378207007047648,1.6760074409423904,-1.2913346046100307,-0.3236904310362686,-0.057933539193506724,-0.2908786687769455
675,9.095663123898541,1.8675485720931873,-0.8171406108643795,-0.3178412347396403,-0.05714929701521756,-0.29744346302478986
676,8.675050446838792,2.3226857317942082,0.0005350471550054081,-0.311928907147345,-0.05594923438487202,-0.30010566281629725
677,8.753836512903616,2.7553508193301304,0.5261947554371035,-0.30906852402722995,-0.05446957882884954,-0.29637872416355093
678,9.648241407379778,2.145045335753508,0.07138702893149475,-0.31330752997810773,-0.05356323211625863,-0.28615296326839285
679,8.999104977938446,2.076220639347281,-0.16128079546061042,-0.3134068668525789,-0.059417877374898356,-0.29021689107643484
680,9.435579547609906,1.9478352021867327,-0.841654412035631,-0.3158773085542558,-0.06035258269984882,-0.2894914044277206
681,9.628878223230073,1.836101341181208,-0.8384626580481921,-0.31885547038679546,-0.06111454671106069,-0.28488373616007584
682,9.351160653335999,1.829643320319882,-0.24008873487817517,-0.3231704566924585,-0.06282207701559032,-0.28108878371451423
683,9.781764408342003,2.0227674747052844,-0.6450080937102225,-0.33316032834382414,-0.06187595913242529,-0.2871199112341649
684,9.324623399864288,2.2789613631329675,-0.4082037999392314,-0.3276078140147414,-0.06778897355658277,-0.28720762164684344
685,9.427741145868483,2.339111246323002,-0.9116260349431631,-0.32672152810861094,-0.06937235022025363,-0.2815632822125929
686,9.614623876138056,2.436675291444357,-0.7412403015669643,-0.3279817587531649,-0.0681148352084168,-0.2767790348353611
687,9.481565801477755,2.44630015386958,0.03831836204876077,-0.3280639486774125,-0.06636012538687346,-0.27667017941388133
688,8.73438409027739,1.7952940531240273,-0.46261459333280464,-0.32302160065986424,-0.06726872698926019,-0.2817675459115911
689,8.956261360585911,2.220139169780022,-0.20004787999715568,-0.32214020755622697,-0.06728729117971677,-0.2793127523116322
690,9.088795039300333,2.2518577720172313,-0.03283328957773664,-0.3201119317950457,-0.06792893383348864,-0.2742301569113771
691,9.001280285430834,2.1165401048032306,0.022832194772046843,-0.3192332528303103,-0.06837586722245832,-0.2740574087275611
692,8.770719415847303,2.180685898769412,-0.024457492197780258,-0.320827814401897,-0.06856654356594936,-0.27923842506423935
693,8.703362403891076,2.959105109681399,-0.15417991786342658,-0.32500146112482586,-0.06937842033361717,-0.28182890674559696
694,9.448793211031767,2.933452714902039,-0.9259953992044592,-0.33009800292562247,-0.07184636939178629,-0.27180131436134847
695,9.680528595755199,2.665977467997795,-1.0060889419005572,-0.33333588076165954,-0.07687366473018499,-0.2691438501199064
696,9.376185032845216,2.446940899912007,-0.4825946319303711,-0.3354413974595528,-0.07991757044108827,-0.2733261888995871
697,8.990498783271681,2.3535168940049624,0.03764431184898129,-0.3352862161103305,-0.07932120770450815,-0.2794349987281412
698,9.526468149837818,2.2195599383022544,-0.6522049812775066,-0.3294172022139651,-0.07682400384699276,-0.27767998741680083
699,9.199133177789061,1.9878727057471848,-0.8852781377565224,-0.3260331440327201,-0.07514182806092524,-0.27594443596299134
700,9.140975662297386,2.2364021109544607,-0.5648790423412596,-0.3239034024031684,-0.07471818157461613,-0.2779989520165933
701,9.136872114559766,2.6731595028036805,-0.42030299642089275,-0.3230455851354125,-0.07472700875700106,-0.2780800269837972
702,9.169248501508148,2.9493958026409204,-0.6474958884921249,-0.3234727735716768,-0.07552803409931262,-0.27467093918210667
703,9.473798419853178,2.6546003060568,-0.8156152783341101,-0.32520051301800007,-0.07891283553637037,-0.27128206467921406
704,9.494150239864032,2.4105615840808343,-0.4354979906743308,-0.3294128225550897,-0.08058648550103843,-0.2645250382771914
705,9.51418505961389,2.65614582810989,-0.5097781978877417,-0.33486388951020885,-0.0828608305311897,-0.26277834844356535
706,9.121733736188919,2.942160058776985,-0.7283379102070257,-0.3387007494373693,-0.08579333547404677,-0.2636491772360502
707,8.728272386492144,2.8450451979886093,-0.8598014476822946,-0.33999620967110755,-0.08857844483200575,-0.2645640794668966
708,9.716977097707053,1.9699667112401453,-0.7781582626626224,-0.3400155268104553,-0.089427656627046,-0.26286015575732896
709,9.206019033402434,2.28926189589516,-0.56706246015974,-0.33830262550640106,-0.08777846072008325,-0.2695763509775801
710,9.19740930746288,2.4616113735435157,-0.49193960636592604,-0.33658746923040406,-0.08672763281035364,-0.27449966586797037
711,9.138217508727351,2.732165049653159,-0.3426231318067727,-0.33246931393407003,-0.08716662309979824,-0.2737361842605014
712,8.958201061893284,3.055957527204562,-0.11894988865116682,-0.3280226714541912,-0.08829817409088679,-0.2685549272054586
713,9.172781257125324,3.033727952838902,-0.06696202721157757,-0.3305400484672749,-0.0874174212899171,-0.2660037563024646
714,9.428774602739292,2.8174134141231852,-0.14195520635027373,-0.33141606196881834,-0.08908392827858456,-0.26514520395856833
715,9.237580066209306,3.156050423277817,-0.5507005239173309,-0.3328745511140752,-0.09014359620134083,-0.26619938512609603
716,8.979725497562141,3.358500532102654,-0.5524564633032264,-0.3366224831983502,-0.09178932434652073,-0.2645916122101811
717,8.867311882068885,3.1084748965724085,-0.18376881514939564,-0.34193116225750947,-0.094489362250401,-0.2601278843579901
718,8.915424033466191,2.5218592530506787,-0.37074894698340666,-0.34532658045630354,-0.09785818231035938,-0.2576024871890553
719,8.796321186711015,2.498650977484486,-0.8953449270772095,-0.345365669248019,-0.09957999604325658,-0.2592772637250169
720,8.93595016416551,2.73066462715613,-0.4724199818417537,-0.34287783343737666,-0.0987868257687794,-0.2597021584641206
721,8.8961659338501,3.0168084850457033,0.03444700175993026,-0.33992885960251285,-0.09711317510931511,-0.25925739900259304
722,8.62588081974869,3.1135692342933274,0.11756611036160258,-0.33721206763919936,-0.09605227797806104,-0.2585874273196666
723,8.515222871534858,2.7225443567693506,-0.31855944607359454,-0.33387413525582776,-0.09693762066780756,-0.25857193590288186
724,8.943324955438186,2.724170301035576,-0.5452061631706113,-0.3330453586074973,-0.0977935246132296,-0.25518650132290177
725,8.931304872691618,3.01770070169562,-0.6395564528364757,-0.3340446464133404,-0.0992733728402222,-0.26127725995887313
726,8.940708835110804,3.383109382355864,-0.3900544056702502,-0.33691344828694975,-0.09969938491065655,-0.26775205091975507
727,9.129438248971496,3.634603790328563,-0.18129349135388031,-0.3410901556939015,-0.09962861742964815,-0.2685104803146457
728,9.30649096611363,3.6220822525921386,-1.0699317310579557,-0.3453462234511183,-0.10213138182388502,-0.26086314611735
729,9.385725560824362,2.846112604249832,-0.8057511340249822,-0.34960115243712003,-0.10886464689869096,-0.2600110537018733
730,9.478070466319016,2.7808521126738843,-0.26219784863123735,-0.3488496354666021,-0.11189390803747229,-0.25980099011942337
731,9.15873951910469,3.153448136688021,-0.13621982663898274,-0.3471595999035837,-0.10983937404397243,-0.25725934103984266
732,8.565654190124343,3.5038984962952924,-0.34974063828882257,-0.34509948790253175,-0.10533723872641242,-0.25148099081498343
733,8.460288578564212,3.1771417348518654,0.024999197756282777,-0.33929389472648613,-0.10538742975915642,-0.24376216902898148
734,9.235992304170425,2.937079151778131,-0.23478753235433816,-0.33842620043456256,-0.10539521225113894,-0.242851807580031
735,9.010541606529584,2.8860128102079936,-0.08354146455157715,-0.33756860230017316,-0.10604118778773983,-0.2470697881732046
736,8.844972203117566,2.8666508369992663,-0.09107904811505206,-0.3387784206236354,-0.1073053134196028,-0.2513766823789651
737,8.971394256787672,2.7968447972892783,-0.2941688390125459,-0.3425365074970463,-0.10938740604255309,-0.2537632700184424
738,8.697636115336925,2.677355751752658,-0.13660747720051772,-0.3475777072927715,-0.1127444138441305,-0.25551753869003335
739,9.084851207869452,3.356343376954154,-0.4927978077683067,-0.3500990575505917,-0.11613195726165271,-0.26149705421713937
740,9.235723446760534,3.65495114989047,-0.5772956172282855,-0.3513635434657034,-0.11953158860505073,-0.26686335974365893
741,9.280043360582095,3.6154649459221586,-0.5160530844218736,-0.35095277867486996,-0.12042203961442206,-0.26945903913549923
742,9.298137748520642,3.4738064562702395,-0.42574058163213807,-0.3492677106923279,-0.11852691285380848,-0.2683983860809018
743,9.309684664855997,3.667094314218835,-0.40692337191787065,-0.34759760342094087,-0.11598482903885479,-0.26410701476841425
744,8.79796052554836,4.032767982179472,-0.22144000365111238,-0.34348499503257157,-0.11600191090259532,-0.2555685412875332
745,8.852579637572104,3.779122835706864,-0.5035375057427296,-0.3418680647541731,-0.11600482729010234,-0.24384205458484406
746,8.947149700180457,3.29473138168399,-0.6494135940452257,-0.3410947907723768,-0.11684488580733356,-0.23525629390312353
747,8.84381997858271,2.8920778873534143,-0.5180020753736732,-0.34171489902287533,-0.11833140968838785,-0.23392372976982315
748,8.62057959609915,2.797457083582234,-0.4680633021301383,-0.3466926780982807,-0.11914102259970583,-0.24164180891607553
749,8.879382768802394,3.311603129464572,-0.32943358851633675,-0.35255096756231796,-0.12163075160457502,-0.24427625547990947
750,8.99687003343115,3.3280966645063303,-0.5283560599651975,-0.35469802656911104,-0.12606989264034962,-0.24623557569418783
751,9.046838391163552,3.4132718171716148,-0.5301219677100358,-0.3547013911534127,-0.12949888718929842,-0.2521897996757678
752,9.067478810326877,3.659800581552296,-0.3771297266943572,-0.3536053713320889,-0.1297593585686622,-0.26096393921598504
753,9.055450772477547,3.651028028928344,-0.7276340184835336,-0.35186379160418585,-0.12552430256778152,-0.265202289528867
754,9.156484550172602,3.790200063973487,-0.5324788214359971,-0.34856324611727035,-0.12553292263201093,-0.2592490306995749
755,9.010366532832759,3.565197310418835,-0.434686311137792,-0.34527044835178666,-0.1261931336036371,-0.2519818081304052
756,8.850566340427655,3.376149632488036,-0.17966008542279543,-0.3444640101446135,-0.1270453109101391,-0.24556712684817927
757,8.71369026941949,3.3409991926149414,0.024189851472896262,-0.34617230575983227,-0.1274541706455818,-0.2406660770941484
758,8.427422968605441,3.278948653478072,-0.5225266456534668,-0.34786445140850836,-0.1265806411924243,-0.23640270421627874
759,8.570270822078607,3.269626912435098,-0.879259544147775,-0.35205711738370626,-0.12908211755171264,-0.23727561886339057
760,8.701314153429788,3.3480934731273404,-0.9951568533586306,-0.355644622613576,-0.13351090426421586,-0.2394475338351293
761,8.805852932102235,3.5094802092273043,-1.0926456604710588,-0.35649739555743376,-0.13692487639054327,-0.24457668578469527
762,8.948290248831798,3.681823077880783,-1.0598072658458344,-0.35478197332878403,-0.13760172140416047,-0.2522546632316227
763,9.274009513791645,3.7234563919030337,-0.4355277017454271,-0.3530344484204538,-0.13507343521914042,-0.25991753852519006
764,8.809430559028103,3.9941468799213427,-0.24509273290617567,-0.3513561099264274,-0.13338353589180915,-0.25821626508387885
765,9.002712136109077,4.049778534471393,-0.20076607350074493,-0.3484645075377325,-0.134251766719951,-0.25458072691829864
766,9.24957576016758,3.8395537555917594,-0.47145557252421877,-0.34724031727506943,-0.13553868737269362,-0.25031013415080866
767,9.188770760818201,3.5669849848022492,-0.7822853030591819,-0.3481135986427083,-0.13637660832887494,-0.2458379356269891
768,8.712941583498715,3.696119828603753,-0.40048168265877615,-0.3489909853242843,-0.1372131453719495,-0.24072433968606285
769,8.32931538339205,3.9511843334413186,-0.40199115004418584,-0.3523894180272875,-0.13802107779967074,-0.23306769942584127
770,8.695463061618483,3.717773747582252,-0.2857070515427932,-0.3545495092508435,-0.14011717478003724,-0.22604460859317177
771,8.948885551603823,3.5270009612387203,-0.38815204808009374,-0.3558293603515677,-0.14308449852819236,-0.22689806720237649
772,8.851256956600125,3.587319626055951,-0.6379254161922416,-0.3555937652900252,-0.14544406162309592,-0.2354472355112739
773,8.801701440660889,3.777152425142573,-0.5470602901736024,-0.3521851483182161,-0.14463722445607527,-0.24396227579505197
774,8.628149415987169,3.8375264312432176,-0.23689320204413478,-0.3512992574095175,-0.1420970687495615,-0.2473657102702606
775,8.753254337990095,3.898356860174361,-0.38552183222887026,-0.34857363900849714,-0.1421233608380355,-0.24884604981090402
776,8.793676755365045,3.9312879668223264,-0.40953309258774284,-0.34731905756787607,-0.14298849296896393,-0.2496964781055917
777,8.650659968284629,3.9128431710937988,-0.15113028290442385,-0.34816576890566253,-0.14446952606581356,-0.2503493237470296
778,8.513059215288298,3.8246174399310138,0.1172728232493417,-0.3490354336719923,-0.14786700323304408,-0.25037092302136765
779,8.660204190853381,4.1084615967788745,-0.09818393661765347,-0.35323263849318076,-0.14782227637554143,-0.24783445553869182
780,8.742482523863451,3.9520476058036915,-0.755077070203839,-0.35620775320708997,-0.14970284335381762,-0.24337879166271764
781,8.707337058289003,3.9886179062419505,-1.032592011553303,-0.3579346223193889,-0.1526615751089737,-0.23956132818783038
782,8.503488179305451,4.258646887468337,-0.7506253601965946,-0.3577624806931168,-0.15500114151214456,-0.2372237049459437
783,8.08147936107666,4.210412687464001,-0.3694384002787759,-0.35441874195360223,-0.15418047685395675,-0.2354925727981944
784,8.457235263489723,3.7837360882845266,-0.40211027035838076,-0.3510506926303515,-0.15080644588470538,-0.23374813510685438
785,8.640478224645154,3.869323892059989,-0.32725513426927016,-0.3483114533123918,-0.14998765675015224,-0.23586621531889052
786,8.700027659660615,4.0610710193044275,-0.021563448305859878,-0.3470375922227583,-0.15000456282414906,-0.23927424604748426
787,8.688187481770152,4.09912243506457,0.27418130353241293,-0.347030900114119,-0.15043438951863133,-0.24097640015519636
788,8.641360004074564,3.86929530817739,-0.0396099459748155,-0.3470727822850022,-0.1521335897455367,-0.2375783712021095
789,8.839100946317545,4.010147079963708,-0.41873794209758103,-0.34957617537703223,-0.15381482782585282,-0.24101683880064026
790,8.514734389220202,4.026564820912299,-0.7348108353592198,-0.35398265754085867,-0.15675621580110347,-0.24383113324046493
791,8.460919841108518,4.240333454369388,-0.8647351832992121,-0.3573550742237566,-0.16055635937502377,-0.2447177293793435
792,8.68363916795599,4.49828969587877,-0.6991061649649429,-0.3575933818572806,-0.16395250949021029,-0.24366665399677218
793,8.421113046244177,4.184925390190465,-0.14429473005683138,-0.3534389052818617,-0.16483419957106138,-0.24194537388603957
794,8.464413982501766,4.275999496912308,-0.05062363683742306,-0.3533860981805972,-0.16057820367982717,-0.24363260758873212
795,8.452336098475065,4.3512816449370115,-0.06408887273757226,-0.3508685028259051,-0.15954729634107712,-0.24210850215141116
796,8.611088324933542,4.479491475970357,-0.24705113878516258,-0.3479473040154389,-0.16000526187427142,-0.24210627157753237
797,8.75056555654425,4.643681004563279,-0.48690626334640275,-0.34670648596852954,-0.16087132886057331,-0.24337014394146175
798,8.281006778260918,4.7424869795550615,-0.5018527689154443,-0.34924079145087633,-0.16169641324160974,-0.24080250048183377
799,8.311798555155203,4.28974138616776,-0.4492682275235178,-0.3518380146198185,-0.16335992800275856,-0.22972497695131525
800,8.363968147618705,3.724817660080782,-0.746533863557187,-0.35568258772646477,-0.16629877623252948,-0.22252027325880613
801,8.43573795490881,3.8102025126069243,-0.9794516345646889,-0.3573692344993409,-0.16968888065908783,-0.22301625219556023
802,8.471879422087019,4.373301204399482,-0.9325269826919832,-0.3554566766304653,-0.17182592565493068,-0.22876380106229893
803,8.367484896507813,4.346682020510054,-0.5822181732182182,-0.3504202050895388,-0.1701607924175379,-0.2312837620963408
804,8.524330510063072,4.384290321843323,-0.3323919546414929,-0.3495144782029027,-0.16421071140717006,-0.23295774152813287
805,8.585418402537645,4.422191818425284,-0.22125785390432562,-0.34550664349114824,-0.16342826570923813,-0.2346383565453753
806,8.482096793570808,4.453705399386479,-0.1860684067744604,-0.3430144084734973,-0.16473755684507294,-0.23719875314805086
807,8.348851117536807,4.464062099866604,-0.14709143298201313,-0.34301974093168675,-0.16666001176525158,-0.23932064361982797
808,8.510210978410909,4.43219351616837,-0.010929540116345863,-0.3430858310161237,-0.16920464567624377,-0.2376252078542619
809,8.286489474413374,4.64623444902529,-0.40512747284159917,-0.34979617461152435,-0.16998578175548945,-0.2359614003849341
810,8.136114458025236,4.562351274021088,-0.6760352195168288,-0.3540110665178309,-0.1733623092688409,-0.2336505004301053
811,8.171362049458537,4.437556075866631,-0.6528938999833185,-0.35615619338471594,-0.17759414118202407,-0.2298284167143344
812,8.30167881328768,4.401951821799707,-0.4959847709661756,-0.35575878024265956,-0.1801147032290281,-0.22645737990210998
813,8.246286154784693,4.465608289469786,-0.6724850416320362,-0.35155431523747777,-0.17759999182454153,-0.2281194002550123
814,8.178929142828448,4.3316729424891385,-0.2434341292623441,-0.3498476826608909,-0.17421103023532147,-0.22809288318388993
815,8.294041202866843,4.691848605604273,-0.40291172531561303,-0.34753875270987655,-0.1734009078320985,-0.22742973057989618
816,8.433172059396387,4.795347158042848,-0.37914578130622056,-0.3454555353587912,-0.17428418615323454,-0.22829478422223132
817,8.460494199077083,4.591986402775996,-0.2574514026589797,-0.3444274650134718,-0.17578195448536252,-0.2302022177638251
818,8.265038205599794,4.678835102855735,-0.906234246209094,-0.3452669824370848,-0.17663077415807132,-0.23021130086028713
819,8.52099485103353,4.503766927337665,-0.41017606749696833,-0.34528371956023896,-0.17833336686686843,-0.23021964194772115
820,8.354501920482381,4.688839260478382,-0.618625252969916,-0.3484754543767356,-0.18000202265159412,-0.2283091517453884
821,8.177616559047472,4.757287804189677,-0.7841073047934126,-0.34971714842067464,-0.18255541922371585,-0.2283621118358156
822,8.166350499163887,4.712024102682959,-0.6789735996406188,-0.3478333699486921,-0.1844534367817511,-0.23070283425350913
823,8.278533557075024,4.989614476101118,-0.5504532594776349,-0.3452879725474522,-0.18191461832120018,-0.2323659660156034
824,8.194337292129717,4.635123660107256,-0.19862803850502964,-0.342742265604839,-0.17768182519846232,-0.23147591731771916
825,8.29517991230742,4.619137275713054,-0.2811791281098138,-0.34087261299208516,-0.1786007972390835,-0.23190863340904821
826,8.503474199428666,4.686361205435021,-0.26356912850553044,-0.33963002039929,-0.18030619345592214,-0.2336301113638019
827,8.591725571921371,4.852385200643654,-0.16276339820198446,-0.33901104195812004,-0.18160484120448936,-0.23531491595328966
828,8.2029111441131,5.36708065954701,-0.49143529180562406,-0.3390866962829955,-0.18415066489443452,-0.23444698282420529
829,8.302503297505552,4.9270461873525795,-0.622947636809009,-0.344984868785294,-0.18578928589545537,-0.23022069141082271
830,8.22050843740446,4.832968472820837,-0.641521111011151,-0.348975763619925,-0.1880947995673362,-0.22792727543075186
831,8.235726477184201,4.714723083604263,-0.5382428137633435,-0.35022027344266726,-0.19107068468241561,-0.22884412393021458
832,8.352396843572246,4.5863688280500385,-0.3609755900457614,-0.3487387601447717,-0.19273494139430436,-0.23093577998342685
833,8.330995734817707,4.802777013474698,-0.21109998413762437,-0.34538496011156505,-0.1893679836019053,-0.22919225573533036
834,8.563858547580734,4.936353137358791,-0.22367575909141013,-0.3436984298223657,-0.1868282258193784,-0.22746181956795825
835,8.412725222066596,4.93149234124977,-0.23597157528006543,-0.34011827968051245,-0.18624760592614462,-0.22702557920005628
836,8.264067007007172,4.881454106645858,-0.3912406605866145,-0.3376596122923373,-0.1867028565212261,-0.22440632876206354
837,8.185947093555182,4.860798147659605,-0.6210569116481595,-0.3375169896241674,-0.18821245690838323,-0.2199534409256922
838,7.968671732050635,4.927261163991698,-0.6664072811079563,-0.33923194723194483,-0.19157470900757023,-0.21743389440749633
839,8.080291923292414,4.986742784632529,-0.41363734607535096,-0.34008197803354623,-0.19241725532102966,-0.21658933569697705
840,8.06329197491452,5.1015873926480335,-0.6873790971613922,-0.3428460852410239,-0.19323822151036024,-0.21445872271784397
841,8.151949817672447,5.154179971817603,-0.8569884493585638,-0.3436348933749294,-0.19451756954654842,-0.21625991546287426
842,8.241412570195878,5.185574041768847,-0.6821809870585327,-0.3410636989025032,-0.19536814889117787,-0.2220040659448443
843,7.936377196537427,5.370082614456046,-0.27269304276317785,-0.3360555129497396,-0.19370501707684878,-0.22701182212782853
844,8.056657575030723,5.05080258552031,-0.25962263794270535,-0.33687462866785267,-0.1902873993585646,-0.22443911015930468
845,8.081834917633522,5.130084762959926,-0.34409634458776667,-0.3351695962323952,-0.1901347071955285,-0.2238143079442601
846,7.988363465407444,5.2624082315305625,-0.5029382154217223,-0.3339456193912961,-0.1923057748478802,-0.22643260381303765
847,7.858025415836246,5.233232404599159,-0.5716492127746275,-0.33373896034023165,-0.1954958812535782,-0.22956654231095497
848,7.865717381826828,4.94501253746509,-0.2680268023158444,-0.33299852100914223,-0.19801838263604582,-0.22700326916538005
849,8.004280377851106,4.788840938032253,-0.14002495431481712,-0.3371937429244678,-0.19712037220447365,-0.22360828219161633
850,8.179459742937688,5.074360367119772,-0.15021970841665672,-0.33948249517067214,-0.1994873960873894,-0.22476692019616495
851,8.195425458829721,5.230344966963582,-0.3387928933949516,-0.33859269952106485,-0.20203577594774821,-0.22820870852995911
852,8.079776651207316,5.253437963580103,-0.5211452274756216,-0.33545863761027783,-0.20310574417236293,-0.23090186503286275
853,8.053623498284923,5.61579412178994,-0.3242008649279597,-0.3329710308648094,-0.202247922235848,-0.22918557941822645
854,8.053623498284923,5.16643272534645,-0.363124987251289,-0.3321068378184823,-0.19884940327804185,-0.22831033379018212
855,8.040061278747862,5.202210911497483,-0.3831768709649624,-0.32871040850961253,-0.1980732883489597,-0.2287335362865334
856,8.03408514871418,5.559911191264037,-0.4373668827067564,-0.3275376870916247,-0.19808317593852928,-0.22695711980015162
857,8.032311567282697,5.753261120392426,-0.462722710206697,-0.32858306750623933,-0.19851442718033172,-0.22292011228368058
858,8.01308203926142,5.038786739966218,-0.3022235877822648,-0.3277960330693405,-0.20023186632902934,-0.21950826641463383
859,8.185804662777795,5.1922772870080145,-0.3463460508333266,-0.3278430386296521,-0.20278238659101552,-0.21610539500109113
860,8.120757127546579,4.9828271610861385,-0.358956848682842,-0.3323419027662421,-0.20398838278715575,-0.21272178086719673
861,8.004413510878074,4.894395423811142,-0.3166883823551597,-0.33394751450434346,-0.20613070907224057,-0.20976399785207234
862,7.948992699042272,5.090732522302456,-0.338787132073499,-0.3305867706020579,-0.20822624962795921,-0.2085405710121948
863,8.000123804578072,5.452928610751777,-0.6514669259892444,-0.32479802477000275,-0.2065507240092112,-0.21108182793228866
864,7.774477814524645,5.12169745935468,-0.2426534143183694,-0.3264011705532037,-0.2022816386278839,-0.21534063252490865
865,7.700531697271345,5.276746609657344,-0.23685762588284498,-0.32485885028470374,-0.20064073809960722,-0.21633361444324384
866,7.779359401722714,5.337230580052308,-0.25083669884888077,-0.32192641012268663,-0.20156896394355844,-0.21675922140556814
867,7.969888388379139,5.271622725022766,-0.19576373112941503,-0.3201378089630607,-0.20369413182628376,-0.2180632759648873
868,8.184511026123232,5.498956194828244,-0.22700464086366515,-0.32263882289286905,-0.204558897599282,-0.2206201101236763
869,7.827999984269098,5.5074445577699285,-0.3513888319168235,-0.32517617426947487,-0.20794119272871397,-0.22150519064797494
870,7.86749626789531,5.404616740735422,-0.36434874075799395,-0.3270784046247933,-0.2100243841158342,-0.2197699424663469
871,7.931881611030056,5.470996164195185,-0.36804762276756975,-0.32748478393003405,-0.21084407723384782,-0.21721490783224612
872,7.8731356218886335,5.57331209818115,-0.4082502131495664,-0.32510979870792744,-0.21018887315646137,-0.2144103001116789
873,7.72985507477714,5.248276425970492,-0.4813796665598455,-0.3184780261133051,-0.2077227115957216,-0.21091744225655376
874,7.752467785933879,5.362703319495692,-0.3787803834378648,-0.3159931598748179,-0.206890694277,-0.2057758478810097
875,7.712875381443098,5.277444126228902,-0.3316878113765104,-0.3135069244194901,-0.20671154134993508,-0.20194359631879003
876,7.750856797381689,5.099827306602085,-0.19928978983506898,-0.3135954886157643,-0.2071479013661443,-0.20073038306532115
877,7.800490544800311,4.937667912858044,-0.058718416064767145,-0.31588382043849755,-0.2084302253250853,-0.2025104273575189
878,7.633107330737339,4.906508192684949,-0.1588161105072039,-0.3175280330913501,-0.21092010546629544,-0.20680140507163955
879,7.620117049860066,5.343201504493075,-0.057334367135965125,-0.31749229565422893,-0.21007402002118924,-0.21106706938819692
880,7.729824079097057,5.698708890557162,-0.3975609041219724,-0.3193930907581426,-0.20985873953528217,-0.21403909844337787
881,7.922729992659239,5.722925925915783,-0.526519945374222,-0.32017256131221883,-0.21117220913313628,-0.21661148416681658
882,8.078166461565997,5.572815216752515,-0.3994693005597227,-0.318449717654941,-0.21329409375365987,-0.21917278257754888
883,8.012078874610784,5.730221800275292,-0.45908323353768504,-0.3143142043535988,-0.21412041335722454,-0.2216018478087701
884,7.935580553889047,5.637661547971126,-0.3432099578040694,-0.31347190332504793,-0.2107177262589091,-0.21731121522002864
885,7.850967683337418,5.691775944120468,-0.24164991874836553,-0.31201560232300785,-0.20927847540086159,-0.21171692750583512
886,7.779798832759786,5.601082626521155,-0.3272838995790316,-0.30994362800907316,-0.209322330560843,-0.20661036842913694
887,7.7655185510942495,5.425607039833741,-0.5030036001862696,-0.30814213201490315,-0.21018684596141096,-0.2021065389081736
888,7.861597171609254,5.503442723700887,-0.4569615957385623,-0.30822618307735705,-0.21103152171906947,-0.19704633886702147
889,7.674922024187655,5.573404993865905,-0.4191194670882835,-0.31075404306559157,-0.21185521172332653,-0.19535795625372543
890,7.622645125273188,5.611339478937966,-0.7500166783479842,-0.3119971161886422,-0.21334747431810394,-0.19497546339754324
891,7.658416051146376,5.7096619150414325,-0.8287373520804411,-0.31153886036969797,-0.21549945998294212,-0.1976348856837975
892,7.716505458396555,5.755284494204887,-0.5590544470641173,-0.3098544880042517,-0.2178494874918351,-0.20298797603188065
893,7.715946628620673,5.492702228496771,-0.26581811530728733,-0.30819012810830965,-0.219468566321989,-0.2088863081044139
894,7.76357765850402,6.016588213198243,-0.06915922942121941,-0.3081373340026146,-0.21521336879184758,-0.21057274417723798
895,7.821927341870241,6.07596386047215,-0.04950388132700931,-0.3068288586343664,-0.21227601887549424,-0.2096348717204551
896,7.752313841080603,5.932499777508873,-0.2027413201417762,-0.30386842754659477,-0.2119559042438013,-0.20702289182264066
897,7.596109828024791,5.730823942109084,-0.3407259702937054,-0.30130299135242766,-0.21345138436387162,-0.20245264542511682
898,7.537545155329316,5.532338641783587,-0.1359471572653475,-0.3029698335129973,-0.21430908373857485,-0.19486233724657187
899,7.561120109514003,5.496330013503625,0.017686670982084596,-0.30134447888663946,-0.21687661820168075,-0.19144883792022413
900,7.490347225042818,5.434789711621844,-0.20310285307698148,-0.3022551331381778,-0.2174565852132213,-0.19066794065822196
901,7.528629955981263,5.420792864166362,-0.5864600640572641,-0.3039237255208855,-0.21788319734075964,-0.19201003609629935
902,7.63969445007946,5.524379755876483,-0.7828126894979615,-0.30467842717711224,-0.2187314541095136,-0.19596083224313574
903,7.602742278494339,5.80896716768289,-0.3593119656280647,-0.302915057841828,-0.21954274075347685,-0.20355602192037567
904,7.546451061359492,6.13267817900977,-0.5889517323323212,-0.2986863538223913,-0.21703476642815578,-0.2069343228032669
905,7.476826369154892,6.186909775631593,-0.44346453932170116,-0.29899850891492225,-0.21447513289696746,-0.20508068081621394
906,7.563085947787871,6.111825062221906,-0.3380909267280443,-0.2985266412437868,-0.21413344112176763,-0.19988463057499722
907,7.699667306826926,6.008385911207651,-0.2637087683945994,-0.29675223120788047,-0.216077702322945,-0.19397522853855287
908,7.571777081634524,5.944260884051261,0.09155181116136007,-0.2967819281968995,-0.21859360592780455,-0.19055387729778553
909,7.355753521860562,5.611089757749468,-0.2752218894004266,-0.29598069268599847,-0.2194482079291287,-0.18628409673031465
910,7.402225982404275,5.653666776085041,-0.4677156606902557,-0.2957924326697034,-0.2183306042685259,-0.1839825674247485
911,7.557656860730557,5.757660200877286,-0.3792453949448854,-0.29490022880161937,-0.2179703047699773,-0.18671503396926376
912,7.699069268269942,5.9108737925444235,-0.22897816866679316,-0.29433767508298464,-0.2192956430498052,-0.19239213073306888
913,7.725778981564947,6.307369811612986,-0.4735598327193726,-0.29674826793859876,-0.22173873177112144,-0.1949981664117504
914,7.719524401883296,6.06053267219421,-0.44568568739472136,-0.29420029780517254,-0.22006503862087123,-0.19839046420529272
915,7.742961012137318,6.06271331398829,-0.3176349203774944,-0.28910088768227954,-0.2170961744437288,-0.19517423233785441
916,7.571420538042541,6.065647929675398,-0.35047931116784425,-0.28632517472147606,-0.21459767076232408,-0.18734994705631428
917,7.307139776529905,5.920550381389033,-0.4863817673182919,-0.2859227070022042,-0.21381387262904855,-0.1780256226311008
918,7.295979776431421,5.563275175166388,-0.42817729565944695,-0.28440164898542114,-0.21552445514867324,-0.1713817619512152
919,7.323403702727893,5.426004974881278,-0.2846902374900944,-0.2869159985130261,-0.217204408008931,-0.17311213921246482
920,7.372747465819678,5.879361644546837,-0.4973857193556487,-0.285520082949152,-0.2182714224696046,-0.1794326937709707
921,7.3028885739944105,6.364939738223377,-0.5497112612212234,-0.2847033006427843,-0.21736001131746535,-0.1866625326069351
922,7.253488110217244,6.5633886461154205,-0.4626008995112173,-0.2859462561360083,-0.21572699101772735,-0.1918635730921826
923,7.554867577998099,6.351916540349311,-0.6413239853888609,-0.28832614510467414,-0.21663275306050517,-0.19267732779709426
924,7.411012245320116,6.56066372375191,-0.4059663318131375,-0.2850334364090297,-0.22092278729874024,-0.19097043674721773
925,7.214346340034377,6.112293504545136,-0.48098707319440703,-0.28299861022282996,-0.21993019841923575,-0.18660587787315364
926,7.046474605823155,5.666861795862184,-0.39277699113667736,-0.2822444467145273,-0.21781677198279864,-0.17655363364260884
927,7.101154869310807,5.560099295803951,-0.23976904143775912,-0.2811574251581754,-0.21681108162665605,-0.1662281961425006
928,7.620724948366794,5.876693620227866,-0.5108638571078494,-0.2770560516795285,-0.21768610495625804,-0.16726405696606536
929,7.342155591776394,6.101402931041321,0.03753434688712434,-0.27615887953594603,-0.21770608316522114,-0.17665165369766372
930,7.484644216814001,6.4872963346287875,0.07093195209060711,-0.2778507987647105,-0.21637922541909965,-0.1840657517098282
931,7.564422982371083,6.677817056972428,-0.03166200533118001,-0.27726056187296033,-0.21557859314843328,-0.1877573078896531
932,7.502722706086717,6.579992206649323,-0.1853798612124422,-0.275521625808393,-0.21536220863843333,-0.187194996788348
933,7.509810594861169,6.305367338048291,-0.5042713812485073,-0.27794983893823333,-0.21460567655917004,-0.18283241019615892
934,7.377021057004568,6.165052500661147,-0.6162312384522878,-0.2763732717447716,-0.2188695599977596,-0.1743045676758176
935,7.434293733025461,6.105208070675307,-0.5097130159871387,-0.27476938551434693,-0.22115683980284562,-0.16709010687955672
936,7.370893198806705,5.997618775313963,-0.2647580759222629,-0.27223320619213703,-0.22109547642589022,-0.16472460025644337
937,7.251461520467403,5.969184733078182,-0.04208661769977816,-0.2702246222764381,-0.21847893570814758,-0.16734681459665726
938,7.402531565328597,6.314919185499659,-0.056821702779287026,-0.27166789692031784,-0.21348972815073497,-0.17243333990639
939,7.479029886050334,6.489270027839043,-0.06897063347956821,-0.26745883472341253,-0.21353748401848419,-0.1766778026901431
940,7.468606673479599,6.30115902997014,-0.1565775001970475,-0.2652124393264752,-0.2135622126027234,-0.17828608390534342
941,7.514174665209708,6.199764774831804,-0.05570826711480378,-0.265321465187735,-0.21445340355937675,-0.17600352282798992
942,7.562821617995398,6.2676096650272966,0.09288309785077006,-0.26519352953346154,-0.21568195906702942,-0.17088506648411594
943,7.428920314559339,6.32288640677943,-0.1376884131499841,-0.26046754958386675,-0.2157021330195699,-0.16584445296730194
944,7.361563302603093,6.282426019839033,-0.5895681479186887,-0.2654833190116758,-0.21479873335992095,-0.16501612439731347
945,7.27217353276275,6.343976765795591,-0.8632549010187579,-0.2685753854782752,-0.21722118097908832,-0.16551770551041778
946,7.297231503799701,6.414535478181051,-0.6291172913534856,-0.2675746134991479,-0.2192943273865192,-0.16682526258211355
947,7.3910631219854945,6.421727139010185,-0.1412240833712557,-0.26338308441158276,-0.21901192516497325,-0.16779866823156075
948,7.3762272149857235,6.3135996341134835,-0.07042924776037109,-0.2592856065982849,-0.21564611779961446,-0.16674437489291918
949,7.20687244206716,6.292534544162356,-0.23979872539819377,-0.25929590852972473,-0.21223179676170167,-0.15989691488065333
950,7.2367633867804795,6.23720059338002,-0.3209402685937509,-0.2580098299917749,-0.21347008571156126,-0.15969837274321194
951,7.276670331259077,6.551071480003436,-0.30003790558096577,-0.2576667725541922,-0.21558176510179494,-0.16186436684872718
952,7.295750172457176,6.903112857057818,-0.2919407217448184,-0.25850389978922594,-0.2165691520009217,-0.16325155554894166
953,7.366016351838095,6.478227093076294,-0.48334843405356426,-0.2592042312381164,-0.2156851707925755,-0.16151976170136298
954,7.267386441473619,6.38224183329956,-0.21193518520655713,-0.25502221081584525,-0.21402199864871652,-0.1589259110221604
955,7.114497220662674,6.04690375109436,-0.1640684463663132,-0.25476448763497533,-0.21364172296135206,-0.15503235054632034
956,7.028914382195648,5.874320238522527,-0.4201228352873018,-0.2543037670478583,-0.21454204776452407,-0.15211699463291825
957,7.099540790139687,6.039275543360628,-0.6402132075322775,-0.2533507948791228,-0.21625385396860072,-0.15136214738830586
958,7.36680640224238,6.534631490368651,-0.21660753413214878,-0.2541199428528194,-0.21783084493735205,-0.15315438054225142
959,7.065624334495164,6.713559581436527,-0.01707852344606676,-0.2523943099622655,-0.21529839061182265,-0.1574018688751216
960,7.128913398151996,6.564516658854558,-0.15138173950361247,-0.25068633674546237,-0.2127626841321325,-0.15898963206975783
961,7.1401696155763394,6.403422100084926,-0.33060828381148333,-0.24901208337382344,-0.21112289403448403,-0.15666485045509046
962,7.056292471065051,6.3903989288767065,-0.5071108722985602,-0.2476038909313606,-0.21099243586815933,-0.1515324535016475
963,7.084556434218427,6.563007882291521,-0.7710409396464449,-0.24679241689355316,-0.2126976470063274,-0.14648774286081198
964,7.092735499955971,6.403327799304482,-0.343933619973275,-0.2451532168478504,-0.21441492788381744,-0.14392452089032545
965,7.152285141650287,6.4967680042833305,-0.27278002709150523,-0.2441284593392929,-0.21413780654841963,-0.14401719231010682
