,acc_x,acc_y,acc_z,gyr_x,gyr_y,gyr_z
0,0.15543148069930074,-9.441602641147435,-0.18331847367086418,6.979830989720174e-06,-0.0007071998522968268,-0.0010576398622480772
1,0.158713389252852,-9.450067080708529,-0.16925495469057844,-0.0004779300694674461,-0.0010736060818928672,-0.000572577347741873
2,0.1424453199284727,-9.471175399998772,-0.14849781283029492,-0.0007696785576254244,-0.0007939648555284907,-6.497205171055823e-06
3,0.138664831800653,-9.458464139671182,-0.12768648980411945,-4.3712200045242686e-07,6.678432269454577e-05,6.583581270976434e-05
4,0.11909140207978328,-9.44077091642266,-0.14106648346979045,-6.049977622510301e-06,0.0009243269783225699,0.0009111991463289483
5,0.12261998170146987,-9.442209513896106,-0.13598659305058455,-0.00069376796309829,0.00036188475987417284,0.00034789328085652434
6,0.11649792531458096,-9.470947975093242,-0.13962860476853237,-0.0010430870133838913,-0.0004977755996445276,-1.0803981080527461e-05
7,0.13045166179113107,-9.494990202819475,-0.1555209771110921,-0.0010430594529837903,-0.0007924225239191178,-9.785112684604673e-06
8,0.19905492000657257,-9.476255315127247,-0.17693654847535478,-0.0010426943162304917,1.1680580926239098e-06,-7.989808238909111e-05
9,0.1780134830566376,-9.474295398346598,-0.18880875054149815,-0.0010371620606391078,5.316490026972948e-06,-0.000928241083345117
10,0.20204353584199528,-9.462121883845281,-0.16582349506839703,0.0010470105860443386,0.0007228259031380128,-0.001754752133013245
11,0.199546552683225,-9.44672380464516,-0.1511876997817752,0.0016097880526904432,0.0010810517476655484,-0.0011208322934977112
12,0.1666358805263895,-9.444974279889385,-0.15150240766281423,0.000768945132906257,0.0007926931406228024,-0.0002739566492313043
13,0.13184141875402178,-9.470408495645998,-0.15730181256071615,6.919721162096219e-06,-6.456854911699139e-05,-0.0010598620362166486
14,0.17979632157015268,-9.471868206506292,-0.1394890473137413,7.000321192754821e-06,-0.0009262596366793646,-0.0010568823688797849
15,0.14150951740453294,-9.465998271822627,-0.14473060318990014,0.0006917810377231337,-0.001079054629208865,0.00036246432444786284
16,0.13667836790689988,-9.45004499991525,-0.17160291047504758,0.0005539444564798662,-0.0010800021891399637,0.0005770282568324982
17,0.13127082327364442,-9.456985742572314,-0.18897025765407904,1.9112112119431743e-06,-0.0007892383481333696,-0.0002790003939053585
18,0.06934410171448505,-9.517893662119983,-0.1664957323071146,-6.192744655526894e-05,-0.00013697752908469195,-0.0010604384033689016
19,0.21125146719079077,-9.528664883047801,-0.18618515885890052,-0.0008965293366760218,-0.0018604977047050081,-0.0010645018716566952
20,0.20195720680568535,-9.475195795688679,-0.16282811347897938,-0.00033155270575844267,-0.002142200452038295,-0.0024706080953814137
21,0.18971992793971185,-9.457001757904775,-0.1592764155724019,-0.00047570569316625415,-0.0011402547355888742,-0.0016983252297983204
22,0.19983537056076078,-9.464529351737424,-0.172599283430378,-0.0010449525117491715,-0.0002880351745677025,0.0002715023169193091
23,0.21520632312334112,-9.45741774096353,-0.1743785859744537,-0.0010494880924675262,-0.0010083824133269852,0.0009797720592780376
24,0.22743971669888396,-9.480029809758138,-0.1254132196475496,-0.001044036436906824,-0.0001425428938303252,0.00012844939098523574
25,0.17965262811217142,-9.469431949206182,-0.16641740205640468,-0.00104313365228,8.386163906661392e-07,-1.2528154063927203e-05
26,0.1505724050323422,-9.467758965906501,-0.1844920231232024,-0.0015349374239224992,-0.0005050989247950289,0.00047944463063917574
27,0.15110486098351864,-9.476935383984342,-0.1789051141300211,-0.001814009667086339,-0.0010805142928055386,0.0010421220320727576
28,0.16495041620531142,-9.484392653663091,-0.183405953870394,-0.0011209631689433112,-0.0010069960278218353,0.000977606898741425
29,0.15418502985883306,-9.477021306853791,-0.18342261591695724,-0.0019510584944246716,-0.00014048477906785875,0.00011624921596767139
30,0.17164434517601643,-9.48073769861122,-0.15284003051660422,-0.0006863488068804357,4.023326858096759e-06,-0.0007174596161041244
31,0.1909133279434086,-9.45348090231433,-0.1316644470198584,-0.0009691295516638356,-0.0004968210967070112,-0.0015679858967171038
32,0.18547272906421616,-9.439427100783542,-0.13412425905794476,-0.0017975711091647178,-0.0010691503042002783,-0.0012819780347037434
33,0.14565879166189807,-9.490004483647414,-0.16241997059608684,-0.0010494643384585931,-0.0010807672762888014,0.0009774182792049511
34,0.20144306636637688,-9.462454282402932,-0.19802220447626492,-0.0010439320828672094,-0.0010766188443544439,0.00012907527824895245
35,0.21214882463673718,-9.443565030847939,-0.17486178448827375,-0.0003393095414310502,-0.0010730324387443328,-0.0007108715686893128
36,0.20633938754211467,-9.456995172131911,-0.1785962869256431,-0.0009749338339288434,-0.0005642603692707075,-0.0010699241426512039
37,0.1881331468734547,-9.467130162112841,-0.20086851279238627,-0.0017977191463215843,6.634763432045399e-06,-0.0010817770755975715
38,0.1515994106920862,-9.435546541275212,-0.20634039127499612,-0.0010362204555598,6.022564523355389e-06,-0.0010726313895232
39,0.06645499140630282,-9.473430751043555,-0.20631387047139735,-0.0010362204555598,6.022564523355389e-06,-0.0010726313895232
40,0.15990232006965976,-9.462170876770427,-0.21499995542283823,-0.00034049054648958757,1.9789478916610114e-06,-0.0003524547754689285
41,0.15985351013271892,-9.479192199283002,-0.18369940852047006,0.0,0.0,0.0
42,0.12532879835747385,-9.491564206693083,-0.13633342520507652,1.8797147111672474e-06,1.4095278872138253e-06,-0.00028824460342938
43,0.19006599927513068,-9.446335713529736,-0.12238523832769689,-6.784760815292436e-05,5.618815533793021e-06,-0.0011375633024346048
44,0.18712998481700027,-9.426178945710184,-0.19160369295823523,-0.0008970733238181592,1.0442241826643118e-05,-0.0019967284703600293
45,0.146353745681816,-9.446533006072428,-0.19597342018377406,-0.0010384697510595808,-0.0014450193310090549,-0.0007019147924891957
46,0.13194147433346975,-9.486763922075733,-0.17720184612366602,-0.0005497451815014146,-0.0011352681116390427,-2.6765720733046677e-06
47,0.14743009539726942,-9.515799317259853,-0.16984692015321473,1.8882057872872368e-06,1.4158950282020172e-06,-0.00028954666637241835
48,0.1746001252465723,-9.505498379999203,-0.20009605397223157,-7.013533492000333e-05,4.865103853949396e-06,-0.0009832360729310277
49,0.1897695332802464,-9.480910996008824,-0.24114639196245086,-0.0009104307563742545,1.3877710368485064e-06,-0.0001449186727462361
50,0.1076932916582195,-9.485749066678213,-0.19396963726284838,-0.0017467276305819857,1.4042634113411677e-06,-2.097839794145163e-05
51,0.12450377645650049,-9.479465239675026,-0.17882569876289692,-0.0015954965719243686,-1.1777306070097802e-06,0.00048348623293542863
52,0.18178563725768665,-9.469838435840817,-0.17473789302010007,-0.000761929545361738,-0.00029857818303845324,0.000761185121350656
53,0.16577051417896696,-9.473864098812085,-0.1305559004506179,-0.00015510157226378027,-0.0010762712880873783,-7.723524545744446e-05
54,0.18436527241379322,-9.459600302195943,-0.11327553995725284,-0.0018198794635772887,-0.0010707800277785589,-0.0009456388616656416
55,0.18273239527968185,-9.476450105179975,-0.15223244407266895,-0.0013753564554264983,-0.0010704879316179117,-0.001072982220335733
56,0.16833915805880945,-9.464902178994063,-0.15852499655861513,-0.000543656937252468,-4.994400007214065e-05,-0.0005625815824535171
57,0.15082035452415282,-9.444900136304359,-0.15508032253651063,-7.29622221160337e-08,0.0007800356403390874,-2.69730852813591e-06
58,0.14130207413872808,-9.45368054100398,-0.18813749775379537,0.0,0.0,0.0
59,0.1530461319712494,-9.466459740432363,-0.21133759574210603,0.0,0.0,0.0
60,0.16437662987113466,-9.482978723136261,-0.2128140655761296,-0.0014163307728268164,-2.3711434035980235e-06,0.0007000191842116961
61,0.1406617009082201,-9.46798685681773,-0.20684633523026852,-0.0015933206637497046,0.0005117268162988199,0.0005340237398497625
62,0.1216330880989389,-9.447105505264306,-0.21028267887635876,-0.0007525652783942435,0.0010788246929002911,-0.00030623646467982255
63,0.15562198327688506,-9.458755950189586,-0.23261503532445274,6.812477608747659e-06,0.0010819671700864,-0.0010638266763091
64,0.182535449143081,-9.492179680194145,-0.22365360914389343,6.812477608747659e-06,0.0010819671700864,-0.0010638266763091
65,0.16718919502962015,-9.470252737226389,-0.21521946872876652,1.1500928129373595e-05,0.0010854828640996226,-0.0017827765004432483
66,0.17515988457818898,-9.476160475670495,-0.18349634708779483,1.0522199629989131e-05,5.570714827670439e-05,-0.0016143764553277836
67,0.19467966863117483,-9.486950349851877,-0.15405827063145977,5.06374143575473e-06,-0.0007736479558044831,-0.0007626601553570253
68,0.1942433886735853,-9.460032644262736,-0.15985563196657165,7.885223357104673e-09,-8.43005472173554e-05,2.915053789555704e-07
69,0.1717339444945851,-9.443323656742068,-0.17768278700434206,8.848525401570726e-08,-0.0009459916347797371,3.271172715810014e-06
70,0.18408971064649163,-9.477480767803712,-0.19121991425127022,-0.0007032655646672915,-0.0010726952223346585,-0.0007243578764658562
71,0.1924324139954302,-9.485721498172254,-0.17121632064111791,-0.0005364796427535481,-0.0005553550106491117,-0.0010646902604342717
72,0.17972653778315742,-9.458473905731719,-0.17030676540678769,-0.0005740917039275059,0.00030781689363596984,-0.0013644788629934715
73,0.14748421621468047,-9.418646949875255,-0.23317800356307317,-0.0019910315816565665,0.0010027315599017155,-0.0020643242656475406
74,0.17782303228202861,-9.467802430952222,-0.17971378702967547,-0.0011609414507814542,0.00013621641590644647,-0.0012021700166756422
75,0.14163175630056135,-9.49567224483951,-0.1783829857113891,-0.00032688040816123294,5.452298010522526e-06,-0.0010641121347008873
76,0.1321472175729007,-9.49645670611043,-0.1693879921470662,-0.0004973764576339619,3.0970832996339504e-06,-0.0005570006584553141
77,0.17539557204903972,-9.473766133720439,-0.1569408080474431,-0.00045796375487060584,0.0003024059340614872,-6.5442830520777975e-06
78,0.25676193330824715,-9.442526191721802,-0.16087930843940185,0.0009593706887748504,0.0009894852547199025,-7.750503930807443e-05
79,0.23033780318507302,-9.466133850631175,-0.18210095933237078,0.00013022037853407917,0.00013261369820914505,-0.0009328939736985237
80,0.22224249446779357,-9.46462356707121,-0.1894737656902046,-0.0006989255096169231,-0.0007242545423416084,-0.0017889610128551771
81,0.18996826778105425,-9.474116188693948,-0.19144016516628343,-0.0010326287473582676,-3.116523461605227e-05,-0.0016226915204102638
82,0.15644932021240515,-9.474580241002641,-0.19093158360731088,-0.0004485038343015958,0.00047561259929814446,-0.0010671977612034004
83,0.1523986222569096,-9.445667462393192,-0.18651172004340585,0.0009640710575791257,-0.0010727940943123207,-0.0009579777506203582
84,0.13429319976510606,-9.469272477130268,-0.1558418410774667,0.00012377563612491754,-0.001076271427129403,-0.00011966035043560458
85,0.11827435312538864,-9.472750914563807,-0.18842012039419148,-4.686034837837711e-06,-0.0003454539361268977,0.0007246659607144288
86,0.14748129682445033,-9.473927893749021,-0.20446908619267368,-0.0010077272301963053,-0.0005191442687363419,2.6353140321854732e-05
87,0.1871690754917479,-9.474491151194695,-0.20404736613515587,-0.0017828362238892065,-0.0010686905589657352,-0.0013781444397325503
88,0.18783967107004917,-9.47308662438791,-0.20169058575076565,-0.000856777298067962,-0.0009769836809215711,-0.0019517429539764157
89,0.15211816182946186,-9.476539537491837,-0.1577186492068715,0.000801598727838044,-0.00012493555070365567,-0.00023718885166055137
90,0.15151421489865924,-9.48880222221378,-0.15889260892671428,-0.00038796027141235344,-3.236134917317976e-06,0.0007201830206817711
91,0.17169291027726052,-9.476100534906042,-0.1576393985388297,-0.0010466525404769916,-0.0005229341822319512,0.0005363515328631453
92,0.20032597350990083,-9.456576477036903,-0.16449399880846888,-0.0010449975586408595,-0.0010774178048600972,0.0002924605196452499
93,0.21657944744730803,-9.454886603601128,-0.19804148140376168,-0.0008726427675026373,-0.0009894814998221194,0.0008740896692204056
94,0.1466044361951987,-9.443109215869374,-0.23119981811556103,0.0008078674753751532,-0.00012083574662555427,-0.000805524798486005
95,0.1402896493036194,-9.450668350840523,-0.18393783488925536,0.00033565090553506235,-0.0007325925320245856,-0.0010536056209915173
96,0.12748674767433676,-9.452546500197396,-0.15731175191325986,3.0580047708196064e-07,-0.0010766294390938548,-2.7724733998208805e-05
97,0.12794278475785537,-9.447911742250147,-0.16609037062952078,-0.0006025399413006305,-0.0010814882412220677,0.001056671921567047
98,0.16765349293121506,-9.445314780495625,-0.19271597717903755,-0.0020034461581206536,-0.00098723710442996,0.0008578996899632661
99,0.16716415718819336,-9.47038914954489,-0.1694488431432412,-0.001156915265926424,-0.00011792088225616577,-0.0008317309648047686
100,0.18933151035181456,-9.485339028633083,-0.20762748710598394,-0.0010362204555598,6.022564523355389e-06,-0.0010726313895232
101,0.19295964429049722,-9.501600754220824,-0.20646838014987773,-0.0005254300981943089,-0.0005156041834775507,-0.0015808404370811502
102,0.18096732618654723,-9.492499331531693,-0.18222930782374555,1.1979032891638067e-05,-0.001376838131247107,-0.0018122554560411996
103,0.1686361323409546,-9.444577450569383,-0.17573671302937222,-0.00017424851110786087,-0.0020556015163372397,-0.0010551547677100123
104,0.17157214679908506,-9.479483755747596,-0.18407894795071802,-0.001844639333724207,-0.0011917585007876392,-0.0010781978481087477
105,0.16357985788051943,-9.492433503903445,-0.21580794905886394,-0.001367284204206143,-0.0010740615746419328,-0.0003441363091506695
106,0.15170593071265417,-9.474516496755548,-0.20234024429751646,-0.0010464530860422893,-0.0005534072065048662,0.000506311304291722
107,0.16296162044547208,-9.447603307473702,-0.17287587151199918,-0.0010500178550367637,-0.0003143184133272465,0.0010486469465682134
108,0.2034349204784683,-9.444127725906773,-0.17219379310910915,-0.0009562021758816881,-0.0010798316660589318,0.0007720811712025866
109,0.12807721605311978,-9.508066340884477,-0.18200370821909248,-0.00010483704863848728,-0.0010680535741319067,-0.001763718797092305
110,0.14240750857402265,-9.490325311210153,-0.18978415250831948,0.0007226474227462822,-0.00033265078679096423,-0.000650742102017448
111,0.21492125562476838,-9.471341782553033,-0.16580209968580034,-0.0004837307022048579,-0.0005234619351531591,-0.0005222643479249073
112,0.3677381669024986,-9.454123949211278,-0.15052738926187018,-0.0023857976524238257,-0.0010726761471975582,-0.00047212275844059283
113,0.6205961189305057,-9.426840448819755,-0.18207388395238672,-0.0029519560104498133,-0.0009843236945670324,0.0012176528858229045
114,0.9308349800062914,-9.402159274482747,-0.18198395313039695,-0.0012927961693645165,-0.00013227619448908222,0.002932216401848437
115,1.2039535529756775,-9.455048498932527,-0.1894498005545032,-0.00036827824252430304,0.0014531220707445665,0.006829446526540676
116,1.6134766275624086,-9.518200290878323,-0.2128978333762569,-9.274846780225361e-05,0.0015569371494891147,0.01419354989258407
117,2.1274682789373545,-9.526830960496726,-0.21350579691203603,-0.0001636047450974487,0.0009541776569018253,0.02506877976906003
118,2.6717561147554534,-9.43964555966711,-0.15785849017740775,-0.0001620565480650313,0.0009820413176959595,0.0393185386919573
119,3.2555336561803583,-9.33326333200562,-0.104417367598207,0.0005453528958469433,0.0017484330998162674,0.05884225024675889
120,4.028623679088486,-9.484536186338913,-0.2711016067299677,0.00048417297973035457,0.0017347462726201536,0.08568792405827527
121,4.857159871389934,-9.536149180501322,-0.3520328886946634,0.0013032126463839208,0.0021081881904724304,0.11734774200084147
122,5.725108064226172,-9.457397018893145,-0.3242854511744339,0.0015068385129263923,0.002154489441878393,0.15562281616765394
123,6.6319521176210685,-9.295882601348584,-0.23741477356385798,-0.00018048762751868869,0.0013621021499417834,0.20230587531318547
124,7.524500512892729,-9.062556206948692,-0.1371063277023741,0.0003062829375048472,0.0028233990600853532,0.2557683051123943
125,8.78915030937639,-9.384162864897291,-0.22596867247574276,0.0035958372223329023,0.0004898173518486876,0.32249265559508583
126,9.976596180490933,-9.268542635448984,-0.17036037183316946,0.0062471093207474414,-0.0014092480900876163,0.3985804611336795
127,10.332282703380105,-9.012297444047698,-0.11364955191994514,0.00788436942522723,-0.002063706166830364,0.48480846578164716
128,9.353507406583693,-9.043180205183203,-0.19430878687126193,0.008920914390030421,-0.0019785488536088526,0.5818969447272867
129,8.076341117296943,-8.798252192000959,0.09828868210619562,0.009899682366067586,-0.004221956391863201,0.6879921264812578
130,2.328580411434183,-9.219005925858985,0.077466552903867,0.008007618622613273,-0.009433536641807141,0.7903854801204269
131,-2.194446711221183,-9.034165104798788,-0.08555643419168953,0.00731532863308844,-0.018222016079813587,0.8775794290782384
132,-5.116929077063406,-8.637311196002571,-0.34557421961277024,0.007008191571798064,-0.024931541572654564,0.9117102533535733
133,-7.189190835350947,-8.70028664143223,-0.6183361443292577,0.005689819386877104,-0.024029992715640245,0.8729082220517325
134,-8.223646596098913,-9.273880804040362,-0.4878602535937522,0.004970700404494613,-0.01790872536229167,0.8550573507667178
135,-7.403738412147382,-8.984250205492222,-0.13750634344789878,0.009099826321738117,-0.007675137583957371,0.7606306585541474
136,-5.659655135309849,-8.869270419434311,0.18343027202788967,0.012334092710679465,-0.0032749540486134814,0.6671766878518599
137,-2.8820180525229055,-9.19294170714852,0.18372347419337273,0.012604198585998708,-0.00357449870265588,0.5983783342321813
138,0.5199959562655596,-9.80566345399185,-0.21205960936239104,0.009542289151398329,-0.0035448841511164864,0.5557227669782723
139,0.48476378276799414,-9.39416256053265,0.027909952093833092,0.00661089018092706,0.007970079384980617,0.49285139146634693
140,2.498683388643496,-8.909319942952928,-0.26473907449531064,0.002444765317298231,0.0041105713165299,0.5082493158308657
141,3.1832020252204947,-8.971000346526932,-0.5615734081980425,-0.0008543872082143399,0.0027701354460873163,0.5327384652273832
142,2.634358820049564,-9.280707746499093,-0.6342010023294895,-0.0010647198081958765,0.0027625030554565017,0.5603639676415098
143,1.7031239845882054,-9.368406520320267,-0.42281435293049957,0.002969940023424631,-0.00021649030384797023,0.5974998994462323
144,0.8428717483560216,-8.997483268650411,-0.34422517457028645,0.007669821753084489,-0.004762961782671091,0.645094122943382
145,-0.05361834586894915,-9.008227014186428,-0.11218101905065017,0.010924512548371432,-0.006296671116109645,0.6911815774220679
146,-0.8055026076159943,-8.9579721381199,0.07636713071845132,0.012986477650836492,-0.009483519662168632,0.7280743899019002
147,-2.040427526742538,-8.86899078614381,0.15164828494349208,0.01269327191918042,-0.01001988941610865,0.7433711865968768
148,-4.007783629084799,-8.825873785204855,0.1224313005854145,0.009416975515556874,-0.005834611615450919,0.7335139279092843
149,-4.274960944774685,-8.715337179607388,0.2273955295669447,0.006044821941544803,-0.015337854232955835,0.7385982519647569
150,-4.171433871918262,-8.72225605899025,-0.01448705042955524,0.0035737575835010265,-0.010418629118828205,0.7169801743468616
151,-3.1557873846704596,-8.908709546880967,-0.3611168880807518,0.002264918774418985,-0.007165364306991225,0.6930815316634742
152,-1.999415640807388,-9.165768349114735,-0.5491120396030252,0.0028555703147589697,-0.004882161042449699,0.6657305650344117
153,-1.545272142364685,-9.309705227817249,-0.38329912501344254,0.005566626457780786,-0.001273456637568465,0.6340074214171368
154,-1.57169627248786,-8.981290595099967,0.014451675381311188,0.008138344297236826,-0.0038115600584244136,0.6238639437229129
155,-0.7677026905391401,-8.888602015989997,-0.11633115485934198,0.00991235151866748,-0.0048930993119997825,0.6240925548949489
156,-0.44530022361279076,-9.087060963166326,-0.21117572973133844,0.010033740647892128,-0.0035890726369611674,0.6215459186320891
157,-0.5973839151867146,-9.302179229130527,-0.1914181753895517,0.0088935628531153,-0.0022891449692056935,0.620255704025514
158,-0.9593239750384913,-9.241838513352226,-0.13425012878522605,0.007179731938552786,-0.003399032407415357,0.6270336426279752
159,-1.466765140552064,-8.86293669774458,-0.36635964538273363,0.0053879228767725615,-0.006074860815344237,0.6456908492307663
160,-1.393907789454324,-8.84254764158997,-0.33145279747915596,0.0035871049981409187,-0.008757959930127799,0.6658347909108906
161,-1.0579918800790922,-8.988995791039148,-0.34167275247884454,0.003941552234794105,-0.008155703922233935,0.6761065778804307
162,-1.3411826357865095,-9.143077069804946,-0.2386089719156343,0.005285787864361522,-0.005903676791446522,0.6778009959308497
163,-2.6910092839701236,-9.118957077654365,0.07771591175690835,0.006243012830337011,-0.004496813009682993,0.6753694861745823
164,-3.100583300879303,-8.570896125758155,0.007457507610205611,0.007923684348956914,-0.005352358531223925,0.6736958338393593
165,-2.914673929052728,-8.548478000602362,-0.017026982912063778,0.009580703416622122,-0.005469365463946132,0.675741156247209
166,-2.511606280142586,-8.781270182179025,-0.035999476612353254,0.010775841344848726,-0.004891798155274827,0.6681775019724512
167,-2.4693304068684023,-9.034405008645003,-0.025553451907574475,0.009158623230396677,-0.0049506747680893885,0.6568270927310266
168,-2.977892433356113,-9.051643924258443,-0.012945385634133215,0.004006878060409574,-0.006301515660192347,0.6492417972097312
169,-2.3128851585895953,-8.444243258083151,-0.3195575255926909,0.003216302728459647,-0.005405958227555418,0.6424404548015786
170,-1.7330343136397777,-8.526530149174777,-0.4257113710473804,0.0031205734171344994,-0.0052975168269529,0.6416168927721221
171,-1.4645380272624904,-8.83480454162219,-0.418638980063715,0.003656333702205813,-0.005290104926128572,0.6400211251391481
172,-1.7664190455906217,-9.01651167437288,-0.39766154545551724,0.005127234825241269,-0.005944197614129523,0.6397504969650525
173,-2.585163231134681,-8.813931058495395,-0.4004618611936165,0.007388739582241431,-0.0073530327533992594,0.6438391745497738
174,-2.556781758039421,-8.267205852440796,-0.16315894339540052,0.008168084008341058,-0.006533508770021371,0.6523320401913627
175,-2.41767594015198,-8.539873477906045,-0.20596530401680743,0.007550585240104252,-0.005657998808555183,0.6495999335705416
176,-2.351819906932956,-8.883823005689617,-0.17094311127656106,0.00777909405011498,-0.004244731749525899,0.6480311953260005
177,-2.675083067146267,-9.114143818039443,-0.18671245197440972,0.007954167292306719,-0.003852672217943366,0.6515904750101408
178,-3.3345614563598813,-9.10133672238412,-0.3271640343998503,0.007064510018414311,-0.005503965286512768,0.6600268515653199
179,-2.5981111631121925,-8.450648037849623,-0.020056042550901203,0.006213225491201701,-0.006377434466002212,0.6625656312009516
180,-2.7174940715765343,-8.494035073856427,-0.2299560793316029,0.006171181838197409,-0.004915898785039219,0.6538792139797669
181,-3.172335931425554,-8.795767516353253,-0.45479593872012203,0.006223579306278926,-0.004788144091405213,0.6458427565116772
182,-3.5299364019736394,-8.95576880660549,-0.5562854304759339,0.005920621525844619,-0.0059673395530678314,0.6432767457498191
183,-3.3615555615310755,-8.725533941403473,-0.4841863039395671,0.005282213048664076,-0.007250441248498994,0.6471774404589098
184,-2.1382162039768047,-8.452770302646977,-0.2459296465880185,0.006106529123855781,-0.0055360315617414835,0.648878998706827
185,-2.4898773371964418,-8.627486272129714,-0.14338463635282628,0.0069791918482617656,-0.005307591779124165,0.6430877497122848
186,-3.307886507830957,-8.745655601577734,-0.12544117282298275,0.006231724619834135,-0.0058489496039430084,0.6422088898339411
187,-3.963714738584656,-8.622987961106388,-0.03983486500945856,0.0055056963537607724,-0.006392981509371986,0.6450740591075534
188,-3.9907474948659005,-8.29990807109401,0.14608777450687443,0.006210303050306993,-0.0062913248359405,0.6479051817950489
189,-3.1853008618520717,-8.481563013757006,-0.11666785764534433,0.006215754705867775,-0.005425485316443719,0.647053859126756
190,-3.327882041992149,-8.703116717303834,-0.1129627211606882,0.006221349031730412,-0.006084927197582976,0.6462078107745545
191,-3.5024856388503194,-8.731441600842352,-0.10005947080534472,0.005681961345077805,-0.00695258972144934,0.6475128439136233
192,-3.443954135738591,-8.430579589266808,-0.1330902031976093,0.005167083272334426,-0.006484972744091089,0.64775912620494
193,-3.1656859960697368,-7.9410038789701245,-0.2203209570520784,0.005302069449951814,-0.004352826866804295,0.6444745529964035
194,-3.319826755121593,-8.42877090925363,-0.3347250643341308,0.006154299068085752,-0.005203549592192441,0.6419417449069645
195,-4.014963770340271,-8.647329194744723,-0.12208183343886883,0.005470993275872344,-0.0060928316082901265,0.6476666784640919
196,-4.261274025828154,-8.550374300324535,-0.04002712255974314,0.006236658395356319,-0.005853583311891786,0.6468961417432266
197,-3.945459868085662,-8.25752751371227,-0.08987945617895815,0.006976203208741589,-0.005296514822691813,0.6408252460749428
198,-3.309517306226022,-8.036986097167292,-0.19371546062071404,0.0061804737699266265,-0.00538518791842124,0.6348151550797702
199,-3.3119639849411304,-8.622543508003773,-0.30245889952674687,0.0053173409163519555,-0.006266953331639492,0.6390506113036046
200,-3.7855054260594923,-8.685585745471148,-0.243729001551893,0.005938193633884422,-0.005619343757163476,0.643299306975933
201,-4.242780822347083,-8.3911480678346,-0.09083149374342456,0.0067949575976180045,-0.004741461800888174,0.6399637276779793
202,-5.061058253450185,-8.262676928730476,0.017330656427020467,0.0070173682900220875,-0.004857379755845647,0.6343090581348312
203,-6.865758358579388,-8.571136095463437,-0.0524963038403975,0.006077650143051916,-0.007052440182330386,0.6325867059981289
204,-10.845036620832015,-8.36443246629976,-0.3861002611628392,0.0043856894550399796,-0.012238650601921537,0.6359786947547298
205,-15.275762786386093,-7.518830478672829,0.11393577113512048,0.0029698249062164042,-0.014151701812512402,0.5970851106248832
206,-18.282953106715716,-7.610863388246038,0.2490261080366496,0.0033678801102507215,-0.012768660698641285,0.525800757954912
207,-18.922789045478215,-8.097900417071633,0.1554163942492788,0.004238061595597577,-0.008658065443253272,0.42035424216808603
208,-17.19969077841955,-8.19543679564758,0.1586428970066625,0.004319974392467571,-0.0030411790777021015,0.279672004713269
209,-15.684707318024305,-7.6015321921478325,0.42219067342968936,0.004629567470701328,0.0012668148497092864,0.1039992330950289
210,-12.39657639062576,-8.525708906742354,0.260472757185846,0.001047176472210655,0.0023752022161548695,-0.04523925397230073
211,-11.00920012981657,-9.124279400774514,-0.12895894861994384,-0.0026424631483899174,0.005732096038620805,-0.1656663360486584
212,-10.792574451503363,-9.010932701814186,-0.37847067995596884,-0.004580783054425817,0.0074534209669199,-0.2578013233897499
213,-10.498208005558658,-8.26496949838795,-0.23704837962286704,-0.004488684168869555,0.004587579492593721,-0.32653350823618615
214,-9.848370138825814,-7.693464194844672,0.03407894839567995,-0.006610993251998009,0.0031517134330205435,-0.3851076281635478
215,-9.486848260632517,-8.614342883880232,-0.1146486298857018,-0.006546984863971551,0.0009077555446793117,-0.43607744275949467
216,-10.571384589351897,-9.027932326994637,-0.21989252339419924,-0.006231244770803069,0.0018846953772406296,-0.4845077407778703
217,-11.78508656954893,-8.695214173306635,-0.17396757940791868,-0.006535245621187903,0.0040579936068308,-0.5387192912193826
218,-11.359999981173726,-7.839327646818619,0.03582047872004854,-0.007542362608569897,0.005114699840649862,-0.6035953026629064
219,-7.182540742997806,-7.220485841626459,0.3123077301850352,-0.00710520533011942,0.005442507763529671,-0.6706311276285842
220,-4.500338338623354,-8.2275575528407,-0.04552035087243926,-0.005134984986783249,0.008110528035002063,-0.74372754636064
221,-2.387671198659044,-8.460973730817807,-0.029018911898722577,-0.004773826230372255,0.012592983629811318,-0.7907620022861434
222,-0.3030266154157718,-8.098952885605488,0.017879863489661627,-0.00610237136059475,0.016528639114972227,-0.8163338618626881
223,1.7539680617874365,-7.795923061342521,-0.2569562693750172,-0.008328028055372359,0.017153046437137606,-0.8218887953288996
224,1.952149037711252,-8.406490914474595,-0.4668793282051824,-0.009500561465293513,0.01086795478198945,-0.7701163017567209
225,0.564399605433431,-9.117537917962904,-0.7020942795709701,-0.010039059846777281,0.009128160437394443,-0.7008679003046796
226,-1.691773120627925,-8.942368230296871,-0.2573878977322346,-0.008731219395543773,0.006918009610748137,-0.6531407433826276
227,-2.93322270278168,-8.589977633093987,0.13393872166198018,-0.0071784834167436026,0.0006951810658215487,-0.6085486092499826
228,-2.5143919032629025,-8.754995102071629,-0.07603739681260753,-0.0065473314864384815,-0.007969748054454762,-0.5583367647277856
229,-4.729125476179421,-9.14607016281895,-0.0021999783866420205,-0.004855612674199096,-0.00019765527256300377,-0.5617376952842073
230,-5.5997875719332875,-8.437755261940236,-0.14422891407643623,-0.003883426189615268,0.0029573297015266097,-0.5697004759325623
231,-5.8970234620594,-8.02004907605495,0.014468041315121458,-0.004597395640104165,0.002248956584970607,-0.580941041637495
232,-5.553426620383528,-8.257912444522379,0.16631292853215648,-0.006135621205410655,0.0007924316233976508,-0.6011155372213861
233,-4.587680968072367,-8.985329497449456,0.05041867091891455,-0.007480473946413612,0.0015847016566758478,-0.6320283298662183
234,-3.631518926207834,-8.799673053701483,-0.006808445948903835,-0.008133029077819499,0.006032379703835767,-0.6600557475266275
235,-3.4015436161602874,-8.484762553986878,-0.3843732056903737,-0.010236940182207669,0.007418931419120951,-0.6957173659471227
236,-2.506996591842082,-8.43597118837813,-0.40513794071685644,-0.012094338011906526,0.005563165673383618,-0.7118380429923674
237,-1.3072508802829785,-8.580883234500918,-0.3572172391125328,-0.011744141734323215,0.004539777712518043,-0.7145483063502038
238,-0.507066660624932,-8.804872680704582,-0.486697388540525,-0.008546192561402755,0.006852178884493952,-0.7120144836306931
239,-1.1368417618938855,-9.118746354595235,-0.39947159824204537,-0.006119456020549207,0.007653763046658713,-0.7001073982175395
240,-1.837112486308341,-8.747369892565125,-0.06334025411293173,-0.005912557242131847,0.006931581316129075,-0.693570395746173
241,-1.7649752030188024,-8.416089214842241,0.08279973314171253,-0.006012274015059386,0.004312089123276949,-0.6782340441532031
242,-1.530153559959842,-8.540563572131962,-0.00480577302951328,-0.006462103551369606,0.0031989386802722475,-0.6605927589380006
243,-1.8114491539786175,-9.174626486926249,-0.2278809331145454,-0.007378900684212375,0.005332239807856551,-0.6480623527366673
244,-2.8429689002684033,-9.372598164896601,-0.23144838398971274,-0.008257937478625,0.005299711765775205,-0.6412832446311961
245,-3.392977223351444,-8.966898865756505,0.0026483508854256987,-0.0068680626824089794,0.002940562108830559,-0.6360006805169671
246,-2.9397273718433095,-8.696027566512232,-0.05098224154423915,-0.006836317791300289,0.0014756009192250586,-0.6353319749280968
247,-2.3924836857254252,-8.71665931849058,-0.32056770968987724,-0.007281693283627865,0.003430562216114167,-0.6435341486254871
248,-2.5530758070828448,-8.973652404503182,-0.5657650662710434,-0.0071794925281106784,0.008353535610588865,-0.6592923752535318
249,-3.242060533257427,-9.023036528713728,-0.2754007322044404,-0.007151664855486148,0.006650899490377119,-0.6635289274898363
250,-1.835492492915379,-8.838553908159597,-0.16491291529195293,-0.0071587565431737365,0.004142781692688313,-0.6623969034756738
251,-1.2503140969787905,-8.934810310418342,0.0068751401873210355,-0.007144518416580126,0.00438574615510233,-0.6645843818602657
252,-1.275673609981554,-9.13052984648991,-0.13101794977438033,-0.0067705913668435645,0.005788467468660064,-0.6701996442173643
253,-1.458070908300186,-9.130027836135882,-0.6191745131114972,-0.006155335896177642,0.006278868453731663,-0.6761254035047499
254,-2.038423099523876,-8.55940521025825,-0.18351004393816953,-0.007012072003270099,0.004538750655132975,-0.672735298403016
255,-1.7910871692324002,-8.529129282800685,0.05795366454071995,-0.00789899904613952,0.0043365031861636386,-0.6647433454853391
256,-1.6390310771945211,-8.940363382849448,0.029558454359841474,-0.0076514449807298015,0.004892705584641336,-0.6629301279578527
257,-1.586132960220135,-9.136378000176975,-0.14032749635955238,-0.007178001592208751,0.004688244019981133,-0.6594557401433078
258,-1.580204803554626,-8.788261474068142,-0.24458403216870808,-0.007498408545809101,0.0031886332819924946,-0.6502779876344918
259,-1.8013845594004647,-8.804064617792463,0.08743231749965888,-0.009162402621943582,0.0031941239121613227,-0.6511463818369905
260,-1.6020297757764757,-8.948541659073442,-0.24900548604734257,-0.008556453451150529,0.0063231484914702835,-0.6519983175238313
261,-1.8373238151705422,-9.131951663590165,-0.3058622967718936,-0.007716265251434104,0.007509413253736649,-0.6528412481933918
262,-2.2357552190815575,-9.135695294728468,-0.11216085269653528,-0.007247328909937957,0.005383012451024146,-0.6488380440953383
263,-2.2850045992990067,-8.864854507627733,0.10636221526480366,-0.007304937493026854,0.001391074990272803,-0.6399337755805032
264,-1.1414269678571367,-8.628006762723377,-0.07540156741892108,-0.007288577407419248,0.00398940654361721,-0.64248854294939
265,-0.9812022652550219,-9.047761212548323,-0.3947117630718042,-0.0064739187189473985,0.00583479346663723,-0.6511958104977874
266,-1.215665978173737,-9.05042415660805,-0.4666009913914395,-0.007267282390396082,0.005304616056706596,-0.6543917145213429
267,-1.2371091081327599,-8.782649394534058,-0.39028205819949213,-0.008274404175655716,0.003213655924834343,-0.651274199365302
268,-0.7722652484211766,-8.629628998563417,-0.2636688283760232,-0.008176146926538072,0.0014250275114616145,-0.6459266483677265
269,-0.5349374130556194,-9.232317988607138,0.031949317995855306,-0.007297357202504325,0.004043434020601763,-0.6527139017068208
270,-1.20962753025225,-9.33173826447414,-0.37801549869418777,-0.006458541093630765,0.003495703888363814,-0.6533155823093618
271,-1.5835238319089302,-9.21164055906712,-0.24309334130728444,-0.006732877543931277,0.0026287491060312976,-0.6521954854830876
272,-1.4238284679712494,-9.053342854299698,0.023930381417227805,-0.007240736098128226,0.0031705490837579623,-0.6498095478686188
273,-0.8178035101663994,-8.97970500369495,0.0154574824567451,-0.006988340695258138,0.005467107239461368,-0.647375048653849
274,-0.37152931253054755,-8.979563151628403,-0.0456322514327833,-0.005301509187003344,0.00633990468969363,-0.649903793275
275,-1.2440941384945103,-9.28132076838182,-0.11983767164540794,-0.005957938875834565,0.002456946990202817,-0.6431652172925375
276,-1.4576915493491152,-9.13319058922438,-0.012711174690673996,-0.0067365268559130675,0.001611602194315105,-0.6518142924165923
277,-0.9450121585691793,-8.905972606067175,0.03579608912295759,-0.007504137166853751,0.003945048102974897,-0.6621624909681793
278,-0.15546737075990474,-8.942457553090263,-0.12102876059421735,-0.007939793699643146,0.006990486337066415,-0.6610985998329942
279,-0.319394844672181,-9.11557089717997,-0.21717632137944765,-0.0063418797986207805,0.00348762938809934,-0.6500357784532721
280,-0.581575644108345,-9.207048553257119,-0.10963866204048116,-0.006949216712161817,0.004767356022310851,-0.6514071360077643
281,0.051437083777629566,-9.081139155769602,-0.1500149100228396,-0.008309925468977453,0.0053701204234910295,-0.6556594149974545
282,0.6903342195914022,-8.992792565183972,-0.2527323279710467,-0.008945078454123762,0.0043006734002477166,-0.6554925135530052
283,0.5513206287900156,-9.09485129374454,-0.2930914176099462,-0.008293979718032883,0.002384908649598485,-0.6482578999101087
284,-0.2722314267155392,-9.125595444009447,-0.17972787474851667,-0.008327344840854964,0.004083392442634647,-0.64317220810665
285,-0.8886571575774009,-9.027274738108979,-0.05383979805262709,-0.007577323349538767,0.005797176159360115,-0.6411803461846426
286,-0.7708332085051917,-8.998956699583754,-0.1197827730894277,-0.006764499821256759,0.004066986928867835,-0.6377754970012959
287,-0.44273381300449827,-9.134134310528479,-0.29755315894705364,-0.006645376637574505,0.0013171661094381034,-0.6342259235994578
288,-0.30839273081645635,-9.382267481806007,-0.4109217424947757,-0.0074829603137251685,0.000731833352123985,-0.6337930451401903
289,-0.08134094605440563,-9.33204688443693,-0.09661561852803031,-0.008251799385611882,0.005954065940017462,-0.6440042566168653
290,0.6265308517046844,-9.063762842758862,-0.22142663420853914,-0.00831150963366422,0.006397849547581502,-0.6456414420748792
291,0.5956792935856403,-9.05404373847619,-0.3124427203044382,-0.008346202822914225,0.0029265174541380974,-0.6402600925576201
292,0.17607255977662106,-9.229434250407094,-0.21717440449081105,-0.008376006001319424,0.0009634462161939349,-0.6356553830384626
293,0.36587854563929245,-9.350976267787471,-7.429036679409973e-05,-0.008220311168446074,0.0035616760300272404,-0.6382105765544795
294,3.5720063339176025,-8.88583839712538,-0.21742039323443077,-0.007313849777243077,0.0062008324893213776,-0.6492411380307492
295,7.967162057637269,-8.891148979576947,-0.48970046976908843,-0.008081979219482428,0.019802669596743004,-0.6385337512617494
296,11.749464790601323,-9.249973117881717,-0.4179768044548975,-0.008139851636773929,0.018088225854177128,-0.5867051402315248
297,14.102235114772665,-9.595856644203588,-0.2933129015266276,-0.007082589989220869,0.011131590212737583,-0.5136116606515067
298,14.704660005358335,-9.60233846589776,-0.30173829148093834,-0.004729023742683412,0.007823507278443517,-0.42561057503178523
299,14.026930001273188,-9.086320080616824,-0.1373252214302791,-0.0006931737167829086,0.00277910321501905,-0.2761904978677571
300,12.525064472482278,-9.189896094298689,-0.3204983458397433,7.139265281739728e-05,-0.00320633319730974,-0.09561758758454847
301,8.87622481278718,-9.6887469852231,-0.4556576194238638,0.00026512699483295215,-0.005029151660258092,0.04509863449926281
302,3.8737865251502788,-10.12333837639288,-0.4145368403399656,0.000944055053621221,-0.0077043231227344085,0.17651948586073385
303,-1.7513853684839935,-10.11573846714614,-0.21936471533933308,0.0029032015000824236,-0.014069521760346638,0.3038844620875359
304,-8.199851790024843,-9.51994025302098,-0.199832792397389,0.006895593034438419,-0.018519075734502816,0.33195198876693016
305,-9.975820109087138,-9.455692822753095,-0.254323047395037,0.0033779770817327463,-0.0339384167002989,0.3334127024046146
306,-10.116949828029682,-9.552144029435967,-0.0039357792417738235,0.001907963658130249,-0.019323912581134455,0.26191641461607673
307,-9.065093255613466,-9.417750215138375,0.19363555843232716,0.0025340354391073226,-0.002516579782997159,0.1454264739156624
308,-6.990496326281632,-8.9894965678696,0.12711266230700707,0.0033361715116396605,-0.0012557273201912885,0.018675906300345938
309,-3.8861503725515405,-9.04849127691084,0.1502596518481937,-0.00013678895389440248,0.011341519828484057,-0.0891818054571374
310,-0.9049580795733713,-9.224009595520677,0.10703329139398257,-0.001427196712580606,0.008744294153835564,-0.17740326763268782
311,2.2187684698210193,-9.302593655996901,-0.14657421952368482,-0.003358800999366506,0.013352987620845826,-0.22349508573782864
312,4.512850009230648,-9.251680248358092,-0.43283604701671596,-0.00580740748712477,0.02201657080073425,-0.2322866928029823
313,5.360850149113202,-9.183032599132108,-0.5657282168747303,-0.008025365786315455,0.02709729660637237,-0.20986122551446737
314,5.2008373611450995,-9.535105752190482,-0.4041161145634209,-0.008395072310728929,0.01561406101566656,-0.15296915939223002
315,4.629628917395361,-9.613546676521082,-0.3353058596069416,-0.0034298746692233628,0.008060523594131556,-0.08662329306589481
316,3.896720053017078,-9.493427938408988,-0.21626392132031397,0.00029826724978304956,0.0014204320082560936,-0.02065947716989819
317,2.2501673802057884,-9.393760465655468,-0.020521470184992216,0.002520557118582183,-0.0009002322049884118,0.042198083758855975
318,-0.36395886737302885,-9.408955627262289,0.13752116496698222,0.0035410804061281223,0.00032276382380846806,0.09701633548245964
319,-2.08544201132344,-9.289539911537005,-0.1949890310197987,0.0033259961193199813,-0.007596711060943236,0.1301365035811864
320,-3.4398548723664764,-9.520169751068986,-0.3311351995204957,-0.0005406331296217726,-0.014557944732526244,0.13102752891585995
321,-3.6577486207911596,-9.647030867798367,-0.1430651862876222,-0.002359815467504749,-0.010898436306502654,0.11554182550119968
322,-3.573999269725882,-9.562865242688241,-0.03665719649932585,-0.0022820100038514874,-0.0017601075514068806,0.084415847632199
323,-3.5811301986250204,-9.290326182475763,-0.216454815590324,-0.0016120678004666663,0.005651015610097821,0.042015705899487575
324,-2.559397167195793,-9.067283401786653,-0.2845876490130913,-0.0030330416346806845,0.00239151116855121,0.003822572913998943
325,-1.4592319123776043,-9.238687997216717,-0.4747410106205693,-0.002133608896265681,0.004719337315771602,-0.03436201249457688
326,0.05422469679001585,-9.363054048803896,-0.3169605351623572,-0.0011396030644300948,0.009173923036316027,-0.05876685529023001
327,1.2533315745430516,-9.511735114503882,-0.08147667497762888,-0.0009327856904852126,0.011463320339456892,-0.0718792470176616
328,1.8149791169212088,-9.692380795394897,-0.02841812945470896,-0.0015962027371286026,0.010676123882785086,-0.0755076026725675
329,2.5822575619792656,-9.638055272404,-0.24265520009845484,-0.001668460119438813,0.014069756031777035,-0.06448867542870206
330,1.9317842919445827,-9.384336171500673,-0.20925343152293474,-0.00104196905263566,0.013405887539914372,-0.041633639760271485
331,1.4455640372288687,-9.360218610794147,-0.3267700029376789,-0.0009430875971606861,0.011831955856042149,-0.015563336986592444
332,1.1222700083202506,-9.449308717067638,-0.34735193517040924,-0.0018243210306398464,0.00961542950581909,0.009769485069377002
333,0.5406333051966165,-9.560360470169934,-0.179451978255978,-0.002738173304729273,0.007078476881664584,0.03146313329202903
334,-1.4255177102648444,-9.79009490837289,-0.23178928660677525,0.000496685620376079,0.005272760897359032,0.04763170709046365
335,-1.234231944487817,-9.415877253623341,-0.2979936055735132,0.0014806620090229519,0.005129515611882756,0.051935016871982306
336,-1.2584331761932335,-9.139427675967262,-0.301330137999271,-0.0004814725054642459,0.004576589167577786,0.04549892511869564
337,-1.297611818221088,-9.110747376623742,-0.17469124552313814,-0.001934074018290064,0.005638766886532139,0.03152454723703435
338,-1.059456250874352,-9.271474109576708,0.028668189948758666,-0.0012846001525831795,0.008861614630755252,0.013700272339321098
339,-0.544675049215453,-9.20936242506726,-0.019646240927065507,-0.002004105068917087,0.010673614181577773,-0.0041349106587119195
340,-0.2690936103425232,-9.362938585712381,0.04548351278257459,-0.00348458692089409,0.01169476247364509,-0.024347792634086735
341,0.3419336210392457,-9.431178827353122,0.015939341433088318,-0.002810215938876243,0.014956934173088732,-0.034886526085295015
342,0.9343775999163775,-9.469542268295701,-0.365729942927398,-0.0011281338752270552,0.01741317512767692,-0.03678350262418406
343,1.3010162007934358,-9.498804594396516,-0.9076537581882956,0.00035266371944041124,0.017069928875841224,-0.031049661955497156
344,1.7384823550548958,-9.384110801889557,-0.3744471160799577,0.0010824492560971238,0.015267035918640084,-0.01491117717089563
345,1.0149441366622605,-9.789758103300008,0.1618926284191415,0.00031704182742961566,0.014314721897822937,-0.008291431629925336
346,0.28675112294134747,-9.602997173833693,0.017001682677996566,-2.0237942007427977e-05,0.013398432548140764,0.0028646208909100415
347,-0.20638801055667583,-9.448955305400373,0.05313442224154577,-0.00046085425351784475,0.012104377515549315,0.01497064547599084
348,-0.4891230948257206,-9.580705383658678,0.5271690384369379,-0.0013548690807112238,0.010178699924157535,0.024057967065156064
349,-0.9887348884509449,-9.094129456700074,0.05867150898849058,-0.002217840658543781,0.007572743236201598,0.02829938542147403
350,-0.28749062709478945,-9.708534269007895,-0.36919269800722704,-0.00224394187709779,0.01064504264052007,0.02381177742155114
351,-0.06068989272273499,-9.585896357539479,-0.4395552093011288,-0.0021804269845191343,0.010599908298902977,0.014073745800816016
352,-0.052570457734409375,-9.348730292136578,-0.20269005947430702,-0.0017371203865174686,0.010435138719783634,0.0018299254515349432
353,-0.1396670967996052,-9.372082980048603,0.07337574828101477,-0.0009909886670803095,0.012048116918421645,-0.008222440819696919
354,-0.8677986824159246,-9.050774508475298,-0.29957079737286957,-0.0010021337782937585,0.01290151114211535,-0.006528734485121689
355,0.9081702695576099,-8.921426158007783,0.4469277796360039,-0.0009977492852141288,0.013766550436307569,-0.00721641326408043
356,1.0886207649878326,-8.897917532679296,0.8042542985211304,-0.000980907336732493,0.014641486260702842,-0.009814388773483333
357,1.0004559500749426,-9.206968619063414,0.7031372155513307,-0.0020715598436133165,0.015506621277213578,-0.010261778355879306
358,1.2825309002403342,-9.74304551851805,0.29717668067118463,-0.0041317894102378535,0.016191568774889552,-0.006735982918270394
359,0.14091061177066103,-9.636720072052773,-0.057799859808929155,-0.004159455882801021,0.016170822719976538,-0.0024934713472922177
360,-1.2547867001472168,-9.244783752970578,0.24849548831285417,-0.0026172030011548672,0.016152703115899326,0.0009734823890560551
361,-1.2785235353328748,-9.434365524495455,0.08822647243116487,-0.0015241896653445785,0.015556975901775974,0.0014653327474682106
362,-0.8392929418501989,-9.503650429950413,-0.2433639682951105,-0.0010685297595562785,0.016194210839523288,0.0035932518355615774
363,-0.423093578940414,-9.219841260097759,-0.5437780834756826,-0.0012606678292306516,0.01794183561637238,0.008885807505595318
364,0.8227552227928854,-9.588183690378408,-1.0457144353797907,-0.0021126555715917914,0.016206675979460586,0.011427557394854286
365,-1.0009319313457432,-9.336720333128417,-0.5544036940130624,-0.0013131277741209332,0.018577993528242603,0.0012280341055196562
366,-0.28248923582587315,-9.306547611884769,-1.1723398353456387,-0.002201285056964766,0.019384990201057918,0.0007096982640777186
367,0.5891007861874539,-9.400386373844674,-1.4095244262203328,-0.002768933181696218,0.018628738442732655,0.00047284557258270234
368,0.1780714547057673,-9.434006874880703,-0.5595225638069802,-0.0020517564714672355,0.01742574039709322,-0.005777000068292702
369,0.19079418402433201,-9.178344183302432,-0.023267464187046817,-0.0020020363819628862,0.01832477516254723,-0.01341665987662991
370,0.3705422451893739,-9.04190235848402,-0.17306670540634445,-0.0012447678614275841,0.019975668736273818,-0.009081922691243367
371,0.7491479891649775,-9.176481916130406,-0.13790603200709067,-0.0016118553943388742,0.01928199608893445,-0.0016477570977531423
372,0.8231293769001488,-9.203639149351696,0.046789828418734025,-0.0028460875894320828,0.018296072344420065,0.0030840805242820842
373,0.572518682572575,-9.083857396645907,0.23208531718490197,-0.00403090057884509,0.018796084989158763,0.0022556681190156335
374,1.0324942810130362,-9.549796570005663,0.16732088616701776,-0.003168707621585576,0.02140204620249592,-0.0019865562172100043
375,-0.26392828473069685,-9.210575265203422,0.09583789458412484,-0.001581805015058369,0.020713411931740335,0.0033829393638204245
376,0.25957729118475337,-9.362149912451764,-0.46284536449922137,-0.0010145591880711307,0.02108416216995211,-0.00476917957248481
377,0.9329041990508109,-9.565389458263137,-0.3796420693209285,-0.001358931563919771,0.02158387510645049,-0.008684312329862486
378,0.6621704080360772,-9.5305855047503,0.47745703809493806,-0.002256249791589958,0.021371803019924373,0.0008041148166919284
379,0.16989865055617923,-9.493868134137589,0.05071923630566512,-0.003157335008337605,0.02046099016254325,0.01097957459332505
380,-0.4354717161005445,-9.238267749752769,-0.06221491768913832,-0.0015441116535518272,0.022914152749447136,-0.0020426963725476946
381,-0.2607142307369485,-9.041589457161274,-0.2134599527145134,-0.0021930851551359805,0.020714998753252868,-0.001750633721146659
382,0.2668403727797391,-9.09333473857862,-0.33206768824959887,-0.0034823781075863248,0.01947610214395059,-0.0032645345781958284
383,0.4330060616391406,-9.372302904889573,-0.3830991511906076,-0.003787176805593309,0.021759285108596527,-0.009874296952450214
384,-0.9253899609892853,-9.469589977992944,-0.45417722072403055,-0.0022173377232550355,0.02254575184651274,0.005416928632146065
385,0.2038077843636367,-9.714282890688429,0.3310151928081027,-0.0013880906363747253,0.019294747867133057,0.013496050549064165
386,0.7257854390148355,-9.32104432679245,-0.0690975430822533,-0.0010952086867261532,0.023666650889213173,0.007550962064789735
387,0.5488753364602937,-9.125113434815773,-0.9273129276487204,-0.0014494257577887402,0.024907893202006634,0.004738829516602968
388,0.05444151526545693,-9.458992258016277,-1.4031263671658056,-0.0018182401879825586,0.020698041287202523,0.008576611051928518
389,0.14105394178030145,-9.514029666988844,-0.7353733058943043,-4.8968419008386774e-05,0.027666536609577103,-0.006701328115332414
390,-0.8648551110065772,-9.596868256611508,-0.7349831051893085,-0.0031569284880184666,0.02637901119695473,-0.0011270845263490793
391,0.7055989755082901,-9.263159016589508,-1.4010668443843628,-0.003655031253562769,0.024605184971138803,0.009210043744436812
392,0.8634693617366671,-8.888408601477211,-1.2630545674833393,-0.00246455438884941,0.02325263375514961,0.012001342329408575
393,-1.1734024935369365,-8.819989012718414,-0.1781806718512494,-0.0012416586141399896,0.022766286215939565,0.004705312222748443
394,0.729134875331511,-9.288419562966324,-0.6574382277948699,-0.0020606894284385426,0.02364109432856224,0.0021472685380625554
395,-0.6474963163087103,-9.001452429001986,0.029500123435931946,-0.003633589325309188,0.024544077500728748,-0.006052016458224891
396,-0.7096707732259526,-8.931100816096887,0.2358667176478786,-0.003580167231482536,0.025988683285571114,-0.002097130156036282
397,0.1551289550931985,-9.332187647813004,0.21128274154758686,-0.0024040267059087872,0.026139290288614708,0.0030622760088401136
398,1.0511066656424182,-9.80168604007137,0.32619420089737217,-0.0010486627929101786,0.025800438070266954,0.0003760277822164259
399,0.6816581796610195,-8.767860903587222,0.9810915031198516,-0.0009606096765685574,0.031038593286781293,-0.013218530097512778
400,0.945501973560311,-9.310785427422148,-0.5327138069985771,-0.0017649805035248978,0.02801834787474308,-0.011486532149156424
401,0.22104288742752243,-9.605809129485394,-1.2759957946861342,-0.0025894839797649984,0.0281984677730594,-0.013108955941904938
402,0.29382091859387616,-9.426347094112113,-0.7921343809816173,-0.0031108591643832385,0.027158900949433934,-0.0035142073102761547
403,1.071845254650687,-8.852872049618227,0.48080704118414713,-0.0028958624443647073,0.02379665245086761,0.014976486587347654
404,-1.3488986660777622,-8.3256080663156,0.7764119831825439,-0.0011647625021665884,0.0247026451470571,0.005659404826152365
405,-0.32162576318349645,-9.229459026312329,-0.14142883081049912,-0.002673759572409584,0.02392481217655465,0.005994651732813917
406,-0.6312385729911827,-9.268052557194883,0.5943268120421918,-0.0031546226309880007,0.0230768369556131,0.003268772712355041
407,-0.5204533860114188,-9.183657329687982,0.7432157254346481,-0.002414883435372799,0.024150412682178553,0.005548593258567461
408,0.5284516577750049,-9.332953355900406,-0.3046068493775574,-0.0013044094143890282,0.02598872957391947,0.013679674113874765
409,0.1805339444865283,-9.079863553194437,0.2319948955674563,-0.002139553243916302,0.021679327666138948,0.013684543031697584
410,-0.5575373087352831,-8.762735325052578,0.019850525414103586,-0.0028641786414360946,0.027306007756607895,-0.0033189166493386548
411,0.8008355375270351,-9.078023808602985,-0.3252429881110099,-0.0030932282619187774,0.027901073278041873,-0.006230791128750727
412,1.2754148791709878,-9.415706341251335,-0.9890473887777971,-0.002696877976942577,0.02892579466723584,-0.008990575900057567
413,-0.16211845932575017,-9.421220071681615,-1.3613292884803516,-0.0021811375104439676,0.03096791029964468,-0.012259044804310077
414,-0.694515747733433,-9.28864346248045,0.7172090242000683,-0.0031701952435025625,0.023957251138186125,0.011513952519390505
415,1.5781278930842906,-9.054320128904994,0.2336947926742938,-0.0007253536038939292,0.02617613112951526,-0.002757909753003113
416,1.0602119329432926,-10.034561489776035,-0.35797298541127215,-0.0017306392016053801,0.026955603702571412,-0.00574347989540701
417,-0.08865805406277487,-10.325800833434284,0.048976154165625285,-0.0027179290414694186,0.026562933753188418,-0.0055242581968530415
418,-0.10332480200639921,-9.415758813457387,0.7756873142894416,-0.0022307681897679745,0.025696469858273126,-0.004751731920096477
419,1.5075684640212592,-9.424588150930285,-1.8634857569459922,-0.0031539876234874067,0.024769059377913343,0.008817896426559143
420,0.6152096657321705,-10.241412331818422,-0.07733523986611518,-0.002402399901570285,0.023899844333760516,0.01024357520664446
421,0.016784359366007542,-9.90982513007625,-0.5330741977408858,-0.002108163715292116,0.02733409496178022,0.002695638602244893
422,0.08425637080458395,-9.420472221478867,-1.356264664653903,-0.0020766782091699784,0.02780842864731506,-0.0021405250967846505
423,0.604110168475891,-9.144641536741146,-0.9844219088973138,-0.0019041633686573004,0.024597451156503188,-0.0020383579619719797
424,0.5972594680735864,-8.15298315254765,0.9950776632411404,-0.001008149068125304,0.028951688401672573,-0.01137738679109657
425,-0.40491234133405324,-8.826633760131674,0.051299109276257415,-0.002705919914868555,0.02491134153466525,0.009335813220796699
426,-0.5150216725028836,-9.309038920351375,-0.2211462538347126,-0.0013974650285788791,0.02610793049032456,0.005591549328341621
427,0.25562156452796087,-9.761395439840348,0.12428903937720474,-0.0015131055558898472,0.026834623825643392,-0.0030093171931474738
428,1.4413587517749993,-9.896354171649557,0.5413009633838606,-0.004145865651060272,0.024797905776990863,-0.004730845227538044
429,1.9840320907860867,-8.466459856993145,-0.05778348788468222,-0.004134795945271256,0.024806206536100803,-0.0064283277956482
430,0.7786992844130096,-8.533209476160279,-0.6627206998476394,-0.0009907959586992268,0.025586337696028548,0.0024860815948382882
431,0.40548983670566063,-8.827964946838415,-0.5800842134647648,-0.0006406419045798012,0.02520355621275666,0.0070123937958434315
432,0.07601246818626523,-9.165300903544528,-0.6716410993245214,-0.0014492825804466487,0.02673850583689119,0.0029144292546230467
433,-0.37790075292766323,-9.566267364721481,-0.9465091732890161,-0.002402365578494196,0.029283064742280852,-0.005958736957634967
434,0.1544965354799681,-10.315374635514509,0.1095102680355697,-0.00408809079576614,0.02496269321204641,-0.003418061455617321
435,1.0167555504314507,-9.573919540405239,-0.17449125824163325,-0.0033323200422496705,0.02563373167432406,-0.0065696007805802255
436,-0.5853452809568521,-9.110468481428654,-0.49125802638483873,-0.003178712583362912,0.025204554438015336,0.00692464812851956
437,-0.8346746944386789,-9.15109809019584,-0.6411278045505799,-0.0020546023143156885,0.025511025539694015,0.011654411917902164
438,0.997212420712471,-9.69698602157072,-0.4928638263723985,-0.000531991303149729,0.02674482243202008,-0.00011498968564134136
439,0.2930582865042155,-10.532525308723642,0.07997171490864684,-0.0030037852120513475,0.025909230659184088,-0.005232948008452339
440,-0.5094595130075326,-8.973972366611571,-0.7689667704992105,-0.0030876566073589112,0.026714834951880005,-0.007063986223161423
441,-0.3066480091836345,-8.80354654195839,0.1793195859295717,-0.0019421137650821292,0.025701126015317353,-0.0002831470181832046
442,-0.22379867036526763,-8.881370535843203,0.5920170183114182,-0.0010852555206462935,0.02593928094871839,0.005984374926165461
443,-0.6764004498963743,-8.682620548458793,-0.35570696301811644,-0.0014345385669120559,0.028163247504014992,0.004959324324836792
444,-0.8413065952946938,-8.969797292534542,-0.8143892720231656,-0.00303298921273459,0.02908022661606343,-0.0060953612349728065
445,-0.09642889338045911,-9.486864748274968,-0.7605574320351479,-0.003906111784547331,0.025785362211522937,-0.004863705782857426
446,0.6038044617778846,-8.827378870014968,-0.19083973105049992,-0.0018397044608803217,0.026583564611521174,0.007151862932354709
447,0.6506691854464105,-8.616732981062974,0.4643464134205418,-0.00044752573596331746,0.027960637813036697,0.008715384329830468
448,0.20879530475133545,-9.236492126510429,0.8383573059559045,-0.0013808278277345387,0.027467287480213463,-0.0036569548811714345
449,0.6056465923419887,-8.988573756312626,0.6631794780248027,-0.00303983158768405,0.024891044810156537,-0.005364759698515547
450,0.663028039321189,-9.49217452979301,0.15056217651715512,-0.003082339826306072,0.027307554060278905,-0.007889766805935925
451,-0.7587840793470371,-9.19300867854337,0.3252797407790177,-0.0025279990355270643,0.026778123984182944,-0.001322814471958588
452,-0.45144525440268923,-9.045651034725921,0.10886377018108084,-0.002122403202150673,0.025023477927963816,0.0049201299929025845
453,1.5844389601125637,-9.548417535859873,-0.6240680685693427,-0.00211543270207209,0.0238636516505747,0.003871977651698353
454,0.25931776800961764,-10.401853647527968,-0.44235423453428024,-0.002043573200989783,0.024779287934248766,-0.007162647292860234
455,0.2866696680909111,-9.36051502118237,-0.6471529331388741,-0.0028371785897885462,0.024818722495819078,-0.00918280294661758
456,0.8517430765063976,-9.425239902789356,-0.6532076124349298,-0.001274992667437114,0.02605568622812603,-0.009648884583343694
457,1.1363571046107488,-9.142634874465346,-0.36294953331838437,-0.001162157103928247,0.025727462263988043,-0.0017177311492084235
458,0.6657593893002312,-8.403721470285765,0.2478421463379664,-0.0028296904588214302,0.024214773787671468,0.009147091896325036
459,-0.5751960550029709,-9.348086309530235,1.139865852906365,-0.0010876820865761616,0.026853258517708672,-0.0018734345654647512
460,0.5146493311159486,-9.264274599191108,0.27046511399034817,-0.0017976451659739514,0.026135808753810618,-0.0088043158310608
461,-0.03710800614154103,-9.519530002698765,0.7330212358377481,-0.003235717496697939,0.026510985058583902,-0.008296930948646211
462,-0.8695564095929024,-9.4386780819033,0.44309313561968183,-0.003769186667277537,0.02653710962006796,-0.0025224492612631205
463,-0.7927907050513671,-9.039165547522312,-0.6944308457411775,-0.002795732746385741,0.0258294366451559,0.004304681159592462
464,0.9355431393013482,-9.453078181621798,0.3902021502580566,-0.0011309548550722099,0.025823945384847082,0.0051730847758006265
465,0.29427503414163114,-9.765743142244311,-0.33582562907193314,-0.0034550660473459845,0.025865955380657925,-0.0030555164364364706
466,-0.17011764977310545,-9.771833866258593,-0.42097562599570265,-0.0029235586077605517,0.02526883638280324,-0.00786773489371639
467,0.20406962325990552,-9.2832390635137,-0.09075195443483036,-0.0012549426750613803,0.025215233509226654,-0.007650641723904595
468,0.9793924684881948,-8.559979940864835,0.29766827987708044,-0.000733543744113856,0.02566361395657792,-0.0009692302936824735
469,0.22385808126265885,-8.506630108188416,0.3195002685984613,-0.00417290619638984,0.024729916644600024,0.014267794405058598
470,-0.09834330695695573,-9.075187164990162,-0.14066234182422943,-0.0017758910023104257,0.026423427068363287,0.004845836706426314
471,-0.4023085016710359,-9.58180527346671,-0.9190776926248987,-0.0016302400186132958,0.026319362762683554,-0.002887106283607143
472,-0.2226682864262728,-10.02075942637433,-0.8653816457332942,-0.0020508989434631967,0.027099635618008426,-0.006080682499165158
473,-0.04943607205085637,-10.139115860995872,0.19506656050843732,-0.0022518669115198413,0.02871682595918712,-0.0037315304027014445
474,-1.7865779597779625,-9.27829504464091,1.0582135353668547,-0.0031362695668563207,0.02695677120528796,0.0039010834722013154
475,-0.04872083120841603,-9.064261281032444,1.554305858983997,-0.0023648666937758018,0.026895674012455816,0.006596360221669343
476,0.5257918592512505,-9.261992762952685,0.6893997355872937,-0.0008826659638485481,0.026927064159695188,-4.2102218420392475e-05
477,0.36760183094937665,-9.452154758935146,-0.3913502707470725,4.776938233186721e-05,0.026964367107656526,-0.0078045205866109
478,0.49875894006383076,-9.209524531750198,-0.8980867448761557,-0.0003087465435837601,0.026977498990174906,-0.010433016323828974
479,2.5965412703979447,-8.076584915814106,-0.5783511217131305,-0.002017792868840739,0.026949795004526413,-0.004513082799992719
480,0.9521607230618833,-8.634405944494432,-0.3045806948650307,-0.003779816844616553,0.025202188808635624,0.009677685374717332
481,-0.3497681784663275,-9.02659062378559,-0.12348579377656972,-0.0030284001842622414,0.027225709760293617,0.009351751683172472
482,-0.2655511466640799,-9.327064900842258,-0.08579412659655064,-0.0020945190114923136,0.027441332626706914,0.0006015665879534394
483,0.8038282131699201,-9.540199986615862,-0.04596862652743046,-0.0020392304465483737,0.024811501671996188,-0.007829101839954996
484,0.6281566814251056,-9.49699051572771,0.41445440429122804,-0.002061364663520159,0.02479490404901761,-0.004434933269932499
485,0.6582441078673479,-8.947676459736037,-0.09829894704686634,-0.0012954042977301283,0.025598082253588627,0.0031051390470823443
486,1.0149800663111392,-9.264019856029826,-1.0026136096994405,-0.0016787484585748442,0.026456455241214743,0.00395837242951589
487,1.3254574223015614,-9.755699658670334,-0.9005871864475274,-0.0016886759390515533,0.026108891512700197,-0.0005675450768427165
488,1.3841311279336899,-10.172738363429273,0.39341057845937666,-0.0013739310869728613,0.024810922719658624,-0.007812103801875958
489,1.2123742821330492,-10.920594501894143,1.4604975961297972,-0.003005510250131919,0.024841308466814815,-0.01377136199001896
490,1.6808603164172549,-9.90849579932807,0.8720746999170302,-0.0006598026282130282,0.023949386808726176,-0.003925530658812146
491,1.4896967374224148,-9.898816756105198,0.5695673165497825,-0.0012547798274956162,0.02366825070012713,0.005634199590875188
492,0.44438727908230574,-9.5818649130464,0.3315089177998794,-0.0021613355520873935,0.024466757495690883,0.010899596065455715
493,-0.7432451748860426,-9.039153561338201,0.19729230963181754,-0.0019585018732538096,0.02521551372183722,0.00903556394734717
494,-0.1907851210144672,-10.311371379996983,0.6251005003381871,-0.0010507729910067534,0.022683713926004163,-0.001977107313383116
495,0.3583226253668855,-10.242096121338996,-0.1361382866831605,-0.0010585769097999766,0.023452734200803845,0.001937963770934409
496,0.10144801861645006,-9.868204828003549,-0.15199593839604947,0.0001631918114800319,0.02368867683093691,0.0012454003571121192
497,-0.2550400898068288,-9.16986090457641,-0.27243090058799596,0.0006195101345164983,0.02326573318669985,0.0031818358194845163
498,-0.13774877851345957,-8.67762416266931,-0.7773704217627186,-0.00024674238650606895,0.022579093804913047,0.008012355106025857
499,0.8399440360440313,-9.684215145006192,-1.14741366408039,-0.0010704410411861774,0.022588061767899036,0.006305643503342365
500,1.893421885179147,-10.62427683035154,-0.5695785403397473,-0.00017094129847129274,0.02350543338084919,-0.008693116223828663
501,1.107274137006472,-10.382538763303572,-0.5602077750650715,0.00065846916807795,0.02184354556535325,-0.00783278326828248
502,0.20965532750216218,-9.93754561624059,-0.7623772953880426,0.00027385839193684553,0.020490471937149177,-0.005533773548973665
503,0.06849349700470035,-9.847659711478162,-0.9090361960293518,-0.0011989181499938236,0.02049450761529408,-0.00613403847478843
504,0.40613515968968716,-10.105669292967471,-0.8896909508377508,-0.002073201309388029,0.02046613253052839,-0.00020407935018104716
505,0.428632346045044,-11.040491357323132,-0.6694822460921546,-0.0021707294423175304,0.021250470045280925,0.012397225789398964
506,0.22673299663290936,-9.773181361292762,-0.3472487621409591,-0.0008607763377403415,0.02217712158875731,-0.0009552138164662114
507,0.1996391806311929,-9.141376940994594,-0.534511168867348,-0.0011811126619574509,0.0209777758067369,-0.004622550732828554
508,0.24451349888386248,-9.939113711410778,-0.8822516835593542,-0.00278551392088801,0.01827974588525185,0.0064102612535757485
509,-0.3735175445525699,-10.338039317787237,0.16825976678702897,-0.001059865634250593,0.018319899061944565,-0.0020554978393265096
510,-0.2650057268228028,-9.72442947118863,-0.8481901902868375,-0.001014694096385586,0.018332807624269823,-0.004699519473515017
511,-0.3196947292825889,-8.831785141316818,-1.0210930661470814,-0.0010671678406862979,0.01892628927895492,0.003335795459875348
512,-0.09276937998201645,-8.468214225392265,-0.9219183384819505,-0.0010911090525212216,0.019353376783864278,0.006999135656527522
513,0.5081133837782195,-8.728173510885123,-0.9193802651508178,-0.0012576796245577177,0.01937551117635476,0.002502563418232657
514,1.128101770186739,-8.851872556092234,-1.069143994087105,-0.0020766246442194213,0.019388632096656325,-5.329716531438491e-05
515,0.968849350772555,-9.1501261063652,-0.3220195361701709,-0.00038416733920763776,0.01943246023165972,-0.009264776473422527
516,0.7263495416111863,-10.22172954141046,0.22327363559653307,-0.0011901352422632662,0.016883071451560386,-0.006122666478292749
517,0.28616180577350386,-10.287986332761495,0.3582806718498086,-0.0008261604014175256,0.015114260769271772,-0.007128250151102914
518,-0.09136830667377183,-9.49832846958246,0.36865977541475714,0.0009284619871616228,0.015547792283689542,-0.012886445439874916
519,0.32407773915166854,-10.337936743460236,1.1164157791885618,3.819948150495968e-05,0.01723034955286424,-0.0044166106671653825
520,1.010293973655822,-9.603827990508343,0.604135819991432,-0.0017087118507717821,0.01633922770483241,0.009073507436495718
521,0.7312061312889478,-9.544427970636146,0.029647721796286858,-0.0015072984607130122,0.016766274690351676,0.005146694137665056
522,0.3408619163385811,-9.54751309047707,-0.5316789021403715,-0.001068965057607215,0.016795478936863603,0.0036492941115630665
523,0.0231843289223517,-9.376697762245481,-0.8014346202167405,-0.0012974160350035175,0.015911385341587637,0.008263766864844911
524,-0.8556626655447425,-9.277663559722972,-0.23366992823381183,-0.0020996836878603856,0.015075260470129774,0.0031658569457661766
525,-0.33649558830658466,-9.517199960314555,0.2488315811121434,-0.00042098267005026096,0.014240448171535715,-0.002741171287021966
526,0.31216861349021197,-9.52528484659018,0.5340324730139665,-0.000589810723547535,0.012750132357562219,-0.004292825559858861
527,0.6637509581730483,-9.663529575997135,0.12781916008617372,-0.00019277039148731174,0.013138252579431424,-0.005533499572419557
528,0.4612349861146548,-9.969743683312513,-0.5354615047813349,0.0006831726405629631,0.014490718499736616,-0.006247895339090709
529,-0.38286917059789377,-10.09882461529611,0.05443679946925199,-0.0010193157381507476,0.011881279953582378,-0.0011673536026801361
530,0.18047514997111885,-9.159215281355166,-0.4153936136304242,-0.0010376477134005008,0.015264768137724172,-0.0011253950613797467
531,0.29187422274674274,-9.579206813803141,-0.07374690000339104,-0.001659845557244557,0.014883680567654559,-0.000503903112483025
532,0.1673060120001485,-10.207649212029285,-0.024800294960567126,-0.001258902548293924,0.013587980969555866,-0.0017259667964254878
533,0.05784891415491959,-10.288891731103178,-0.48202001513155046,0.00021534758843631902,0.012313939534597572,-0.002444375023187109
534,0.23156310292764704,-9.541526621725412,-0.6259925743106683,0.0010005519405369414,0.009690042395288595,0.005211272518405513
535,0.21907206271843657,-9.659007813179636,0.18972613670508087,0.00020785842614240985,0.009687531325986227,0.0010664509795484842
536,0.297748724982295,-9.747176928297284,0.24924738825881254,3.60124921553872e-05,0.00972075542047264,-0.005694880633523742
537,0.32773997502451513,-9.84753262718726,0.032153238344731834,-0.0011813978738281514,0.010156675504845364,-0.007923711449999551
538,0.389303728015975,-9.819126446207239,-0.012852579211528908,-0.0029028107185194436,0.011418977825560518,-0.0041435651756776375
539,0.8120898099867411,-9.306199811202948,0.5122798917470083,-0.002101488080903227,0.013978485502283132,0.0009483759950172681
540,0.8555750429961589,-9.1691218693723,0.49493190500614653,-0.0012551367441785825,0.013150057814195367,-0.0006844058565917204
541,0.6046514216877944,-9.849818891870363,0.3366650495739707,-0.0016620048876868022,0.010366762350342094,-0.000485710641246189
542,0.3329532483538203,-10.112188681771213,0.15771246955714766,-0.0016896397643081395,0.009457870414189445,0.0020397937859284445
543,0.14179198615793887,-9.925011714855602,-0.0349364917985506,-0.0008860385484066159,0.009897559891478136,0.006910999178871873
544,-0.054920982536792576,-10.576020490515429,-0.355159467463661,-9.522134068399439e-05,0.00641612009654135,0.013721283386844692
545,0.11706600032276158,-10.239222672806317,0.14986795429063038,0.0007942013760058633,0.007292434351988282,0.005334666548919383
546,-0.032198125248646736,-10.029443224795024,0.08680511307343644,0.00039609983486869145,0.00816197041529548,0.003789594155630943
547,-0.16250673128895277,-10.21192559517306,0.004637139209541379,-0.0004195554650976652,0.00818594654419491,0.0008493156024868016
548,-0.0770387199748393,-10.43452242235929,0.09780633618033896,-0.0012210350555621288,0.007561248649674467,-0.004282467913732678
549,0.2640282929112996,-9.691037328418949,0.17233449939510054,-0.0020565820366042317,0.007561920378931655,-0.0042925029282136025
550,0.5724554120568959,-9.527581966824862,0.04756886011647925,0.00045569143269954664,0.007576442291096662,-0.007641689890499465
551,0.3317522355696257,-9.680821084655134,0.25838505670087,0.0004958194115746741,0.006309975481644581,-0.011664061209911467
552,0.09254010660640989,-9.75430571895006,0.15679970682388947,-0.00033599349351702876,0.006300189988187569,-0.012126268650431196
553,0.2097357336613047,-9.757714672836226,-0.28067121887007684,-0.001400495223964748,0.007369633697541565,-0.008539062731653228
554,0.8311921272988892,-10.12576392033312,-0.4206429117115037,-0.003098391243402148,0.006488539383440753,-0.004313632108590264
555,0.5285400854535603,-9.715143488258267,-0.2085008689213708,-0.0006109682918880146,0.005619840707769132,-0.0034225020742433667
556,0.4368027824379527,-9.568621834923587,-0.11743916754167946,0.0006027847722842962,0.006013664422873274,0.0031482982332106616
557,0.345604692585167,-9.63009204203728,-0.13610710718435007,-0.0010840467948269874,0.004281437811018689,0.007395352582830982
558,0.19467849168313722,-9.847435101344058,-0.2938232697289964,-0.0035961070976792053,0.0019022742468145272,0.006741386638974377
559,0.08164193504510896,-10.176385714077421,-0.6634640847016678,-0.0010747542993343139,0.0053602829602297,0.004213725818774274
560,0.3077386720558303,-9.279749900612385,-0.3268152980284357,-0.0002653873113020702,0.006204954736845329,0.008453986532752563
561,0.34994230833759116,-9.51239417587229,-0.22874459340572428,-0.0013053901898413042,0.003841001351623085,0.008243637195413073
562,0.20207339984271877,-9.911181949382428,-0.3534982033553369,-0.0008739774845298559,0.00427927091390434,0.005702743972688298
563,0.033402184025603306,-9.996011170517034,-0.5274607381625084,0.00039744825148715777,0.006448281504788386,0.0029520703431291147
564,0.18855985111671855,-9.778664137977081,-0.4199897890181499,-0.0021012775315596773,0.0021454627583727126,0.0020881299028016253
565,0.5775817668189861,-9.635469971658516,-0.10478018023734342,-0.00207889624420901,-0.0004238180857071799,-0.0012978934335983031
566,0.5453454949709398,-9.803482990959246,-0.07556984356985712,0.0004295213265815104,0.0021644416784979397,-0.001486298324422659
567,0.3404979028129251,-9.97815025610511,-0.23788294205875316,0.0016917982031045553,0.004756106419678526,-0.003607017203397456
568,0.20253565653040717,-10.009537744902259,-0.43561099628181643,0.00045605301399394407,0.0039004253283998922,-0.006578119760019474
569,0.3604764179587866,-9.900785710681903,-0.4517314247802693,-0.0020662715111878366,-0.0021314652349753403,-0.00320326663637916
570,0.4510035304178048,-9.475478608691155,-0.0017086718594231665,-0.002049992101291666,0.001329366505543913,-0.005761016470412124
571,0.49773619034625244,-9.595954223422648,-0.0636936926634388,-0.00018696825962508437,0.002815191053893024,-0.002545403093299697
572,0.419388853350269,-9.918364410421248,-0.26492019384505633,0.0014598853456425144,0.003228100147772963,0.00043265986147273425
573,0.2923582328197147,-10.13613359120607,-0.4013451838571066,0.0014551007919909923,0.00235958557063725,-0.0002178151145589874
574,0.34530932877966347,-9.980115485087936,-0.43160208084181917,-0.0010031707743329674,-0.0010417443205383383,-0.005293820960740421
575,0.42996441232242105,-9.778511566178048,-0.11958171462616496,0.0006329149534653092,0.0015179013566796763,-0.00019185698708407443
576,0.3365027855067242,-9.805202524860215,-0.1554696731001758,0.000402936508290189,0.00019716693315202768,0.0017042901195210148
577,0.3266183580045038,-9.894343990856779,-0.26122610355170867,0.0004042413291393412,-0.0015242856000310424,0.0025590467245630265
578,0.19438786308743378,-9.806610130921738,-0.08005807881258442,0.0010268123812572079,-0.0021678059580994852,0.002553665695048671
579,-0.697117612630159,-9.242022486271402,0.8135470955279653,0.0010672183890717243,-0.0021020092351466736,2.008068828773048e-05
580,0.16117728063002076,-10.01855863746259,1.2900853592155461,0.0060763169114858755,0.009099183446632781,4.1506253716624464e-05
581,-0.03514562507543498,-8.871873609758323,2.3347180858972814,0.014260144903966175,0.05025590814360423,-0.0038477035733812002
582,-0.3364282259440714,-8.686020997260755,2.1710036182160097,0.013699112380584418,0.08670421395272833,0.0012238700307280045
583,-0.3376633569534146,-9.945428905658893,0.9497581743371406,0.004054295918662603,0.11371626295456594,0.008688728508182815
584,-0.1393075680685234,-10.88905064653035,0.6164200462923839,-0.004179395905205814,0.15421090408305027,-0.005927885909128834
585,0.24090630425938975,-9.927259956518057,0.6812161291254674,-0.008312145722122051,0.18010466087850974,-0.012855772869323072
586,0.5903874551572339,-9.27798075880889,1.14400449255897,-0.010600423479461144,0.208567948944702,-0.0120649572951445
587,0.6520835731152015,-9.11594529594296,0.8093950975004734,-0.010598544977568533,0.2343618931375676,-0.009190322266790518
588,0.4174224144651594,-9.334191813042969,-0.1656252003596291,-0.00786534475727033,0.25787165029252523,-0.007785700437110481
589,0.11137546040240702,-9.56384467463332,-0.3904547658180701,-0.0020457515482575077,0.28453983737409927,-0.009444942459119999
590,0.3359805664493982,-9.663086833529706,-0.26912483722302594,-0.0004160318344944747,0.30433319734331504,-0.003553436840384841
591,0.6069637724620454,-9.62363991853618,-0.6654526965145532,-0.004482800592155683,0.30583235866882363,0.0023329086422835066
592,0.4029427106962427,-9.39659173933508,-0.8397277659677974,-0.008622188826073952,0.29977729834862293,0.0013385015259544976
593,0.0678796627342119,-9.277806736946765,-0.7546169625300998,-0.009162071167404962,0.29382037877882955,-0.0014499453227802446
594,0.7001734227195813,-9.853406293791625,-0.985574864353801,-0.004214764328300144,0.29286928305228854,0.009462131180011879
595,0.09877979454582936,-9.190359922000113,0.04392308004499973,0.0016858867543460211,0.28859600646621714,0.001061413436978413
596,-0.2728563600078591,-9.400565500406406,0.6672161840888003,0.005628207182652809,0.28886784474375915,0.0010033448886889143
597,-0.252564146696119,-9.231182430336368,0.7323011904715973,0.005983634193534999,0.29102946728290563,0.0013813086085936671
598,0.030585289297166245,-8.746868281569597,0.3203221851820628,0.0032848454799403026,0.29408454977141557,-0.002348901676909849
599,0.1917169747724314,-9.153790218932588,-0.272099516728462,-3.1977452727663696e-05,0.2984320049154778,-0.011581135847837803
600,0.5430600382620264,-9.371971694446218,-0.654575687273702,-0.006745176808552917,0.30186005003646943,-0.006581629810451976
601,0.27414582184676356,-8.905025945840222,-0.37217520246799196,-0.008945140089894357,0.3013953002514429,-0.011205034137289944
602,0.24089895183396345,-9.214535891261177,-0.22362063908354515,-0.007214992410829709,0.30055359030393136,-0.011437129457794125
603,0.47365647511646475,-10.052693233366389,-0.2112416774876144,-0.003070095989750984,0.2998502610873168,-0.006820092052365624
604,0.30033576472030804,-9.718827786846537,0.3282045803258724,0.001084248457916255,0.2972154222399941,-0.008395333294373017
605,0.1970859229427251,-9.651012733841055,0.11802652758957694,0.0027330693394561805,0.29030233488891644,-0.004957261174784435
606,0.08301102083571105,-9.573825014990398,-0.02846408775814911,0.0037227897892870643,0.28994836791338796,0.0016873270711259792
607,0.3131368101525947,-9.300335513083496,-0.19235292262919168,0.0015279289781092832,0.2903243678213875,0.006248560897766447
608,0.5418308786743236,-8.958988801206464,-0.2765859085940269,-0.0026111996073141285,0.2896859292494929,0.007674226918511823
609,-0.14292158366089364,-8.938620224012706,-0.04643948049299676,-0.004263084792083062,0.28975527372921145,0.008526274641914968
610,-0.011290268788050974,-8.783708241608757,-0.29125406081525995,-0.004280170505008973,0.2949145892627669,0.011054216611340605
611,-0.0763982026289625,-8.94114765441515,-0.4585813681473588,-0.002365250057381974,0.2967906012831606,0.011022178362493747
612,-0.031129056464693286,-9.162178670489554,-0.5445144215392579,-0.001568633979067624,0.29810363270210427,0.009304986380130994
613,0.06509448120573777,-9.295584278507546,-0.4693331704113741,-0.0023829397745613436,0.2977870942406494,0.006075521007355759
614,-0.13736557639302785,-9.279717954073883,-0.1018900316930287,-0.0031450879611442427,0.2918468137474171,0.0009957245386996109
615,0.10289827343063669,-9.781617505596111,0.008743235422159278,-0.0014414126157364948,0.29014617802639364,-0.004069903851697117
616,0.16326770525128112,-9.873507509000321,-0.19400171012604084,0.00026141536843602185,0.29108664342218526,-0.009144672192742748
617,0.15778714228800425,-9.674326427400073,-0.23997715031525307,0.0010821245345555815,0.2919299214691308,-0.01116240151026791
618,0.28997095102472326,-9.43556970976935,-0.14513564071449786,0.00039974699176205717,0.2916896719805455,-0.008963159863780523
619,0.8105033918346275,-9.514590801517006,-0.3047964974889267,-0.002158110921420999,0.2907855497722525,-0.0030656339928586294
620,0.2800634463990318,-9.567366089631463,0.053835836281924704,-0.005530990122751298,0.28903995424164797,0.001991864663153206
621,0.08084191798854667,-9.255556499875876,-0.24787423471094405,-0.0031069817960680574,0.2899571649324253,0.002550952200635107
622,0.07828236415265541,-9.197029302206829,-0.31993583163965816,-0.0006618184588848406,0.2921250479162793,0.00260304480773095
623,0.12233782056639196,-9.408293859477851,-0.04150208890019835,-5.2238181720545604e-05,0.29447852493802906,0.0027680108953178
624,0.04358193923326474,-9.418481371859665,0.08485145167786516,-8.778142184601598e-05,0.2962271240827985,0.0010489701639751989
625,-0.31803717485982125,-8.74503410953923,-0.6586550570124309,-0.002576494573325538,0.29882666046402195,-0.0015358806231251156
626,-0.22397862635170077,-8.932290712976505,-0.6542315789830233,-0.0043924185576266084,0.29614651080175936,-0.008662331078827903
627,0.1040677805979267,-9.633452632307666,-0.421039138070069,-0.004295231425888984,0.29365194172344794,-0.013612736287860114
628,0.44738627667797803,-10.127194811071606,-0.24977058770680513,-0.0024041543310587485,0.2932506846348504,-0.012996605025072862
629,0.5837643775692809,-9.42541152071729,-0.25732800491365854,2.3755248627667715e-05,0.29400842554922585,-0.006300815604819209
630,0.47464250687542675,-9.003609437578557,-0.31440371179478743,0.0008532280346719293,0.2914177236558741,-0.005433505203271582
631,0.38474932837049824,-8.877657533917867,-0.38240719220601394,0.00040065552078126753,0.288167319327289,-0.005232996683692959
632,0.4634563776018694,-8.95860257506451,-0.3535280537374572,-2.2365303044747594e-05,0.2882943460936319,-0.0017023639586552309
633,0.5584388921562814,-9.261004705217282,-0.23817674504664713,-0.0009623058874167428,0.29031462044763456,0.003456694426434745
634,0.30453995914296306,-9.845023180922974,-0.14845785796387098,-0.0042347266503786375,0.2886273891308941,0.004198154137392514
635,0.49587023466445557,-9.533747126692566,-0.5328610958103227,-0.004218129883604407,0.2886398344266971,0.0016531251345244147
636,0.028344817023116337,-9.291383004944732,-0.24939051545118676,-0.002938413971268825,0.290628418295624,0.0030463749454065566
637,-0.09254068325396209,-9.237173472257181,-0.025339135689306833,-0.000846207266815203,0.2918514145903587,0.005169653236495159
638,0.16744325077618072,-9.380262787904769,0.011048269311031696,0.0005270504843612697,0.29209067137732814,0.004104704031785433
639,0.12136227717984444,-9.622566491086472,0.16175729161997218,-0.0011273461288373817,0.29287426129961996,-0.004187775742963005
640,-0.031310474642932115,-9.115230934287222,-0.14256338849939068,-0.004472311711544473,0.28856272425725715,-0.003364640626497959
641,-0.009099929283041736,-9.606196792894902,-0.0602152607288394,-0.003938156232119045,0.28691884502946463,-0.003160441865975339
642,0.16916357465132575,-9.694071911589502,-0.036934187549709244,-0.002262425791395296,0.28696313044565763,-0.004029512791290072
643,0.3816217229632215,-9.198389604223127,-0.20561785422396178,-0.0008209785978331438,0.287824214266087,-0.004082529606942489
644,0.4206699183768935,-8.840023761364375,-0.4539069083254949,-3.349424817527095e-05,0.28855958618561,-6.6718836381957e-07
645,-0.007498856767111553,-8.872117189411455,-0.1417177207647744,-1.656981099147047e-05,0.28512446192679197,-0.0025345712902727843
646,0.03502669473749732,-9.136139380359943,-0.2702047606917873,-8.66292504119661e-06,0.2863588351588102,-0.0037689181050340245
647,0.34963643519433596,-9.294829897033894,-0.27229271954724793,-0.0013339584149043597,0.2853153203194579,-0.0024000926651776473
648,0.6663336218891913,-9.311513680822431,-0.13424421662302485,-0.0024680737280300415,0.2826628349578162,-0.0006489422787578504
649,0.6539248844787297,-9.355954291530406,-0.22611652095158571,-1.3789088976231725e-05,0.2844416732956266,-0.002948789913463059
650,0.1450157117361407,-9.079316401561458,-0.13635253940272837,-5.2847743131817324e-05,0.28786019993146583,0.002979282758468026
651,-0.10660816124596005,-9.26423606894549,-0.5477221605173744,-3.578847425251344e-05,0.2886430984604308,0.0003496234557763267
652,-0.0658031924992237,-9.197826531281372,-0.707107562975552,-0.0017831725419918342,0.28865410173158945,-0.0016322771805695904
653,0.08823084329653955,-8.99542978777053,-0.617623014745468,-0.003968944603337861,0.2886528581173292,-0.0010454735879039552
654,0.03070858971111237,-9.352038796432428,-0.7930345334828613,-0.0031331004606519955,0.28860507823136217,-0.0012003572650363349
655,0.11781035196898695,-10.246816376818412,-0.5197307804609408,-0.0022594398406948026,0.2869092626715303,-0.0071243636708706445
656,0.14855542836941046,-10.100201123254518,-0.4758192724789829,-0.0014539449771057058,0.2838206887953193,-0.0024780887363084116
657,0.17927131979360084,-9.613844026735729,-0.46001064951530757,-0.00020698151850796542,0.28445003418486403,0.002032409778454584
658,0.23575587805033,-9.223084746885432,-0.30568073569497684,5.096234103961234e-05,0.2856230917100956,0.004201769629690571
659,0.31583766245604855,-9.186263236164265,0.10215522118872675,-0.003210498208367926,0.27896817796953627,0.007281366969862979
660,0.1959504054157155,-9.412460916185962,-0.10556925530230492,-0.0031663910501663903,0.2807255644902313,0.0004870676973346244
661,0.2721744336485145,-9.260234860657302,-0.20980028310611826,-0.003824930898849701,0.2824440194644224,0.001624344539273381
662,0.35529920298365,-9.107441487223431,-0.3393856830084961,-0.0037702877080577827,0.2809726974196503,0.0009760669676468938
663,0.26311851237232786,-9.242571061761847,-0.3024070784546708,-0.00244225667814703,0.2786147299736428,-0.002766698371509413
664,-0.14523526029110978,-9.854915486428515,0.25470572054778245,5.359902295848398e-05,0.28107818708049204,-0.005317408917988134
665,0.17625832287419135,-9.852846691965212,-0.17163261593080906,0.0017462046625773809,0.27936925060035855,-0.00868555474027511
666,0.29284419103495657,-9.525894864989084,-0.5935729847783161,0.0007982051025506396,0.283027142467007,-0.00746309078977145
667,0.36896319798870053,-9.383718078121136,-0.6872658272258775,-0.0017645583395159694,0.28361506297072486,-0.006754880850780796
668,0.4131982681420592,-9.552292941584582,-0.5015400767738781,-0.004395290322144621,0.28114367128151085,-0.007148154349955255
669,0.33939198288815586,-9.881704530307037,-0.34221060951080834,-0.005154087631644538,0.2809449405527003,-0.006362405798172771
670,0.2973091089882838,-9.858118646934196,-0.31064014445302646,-0.0034784594981449282,0.27491429486947866,-0.007170630896806978
671,0.29353039115084667,-9.481994245200475,-0.390653146356017,-0.0011711380259099519,0.27628842781322305,-0.004675093075997021
672,0.20802412464086892,-9.452379847108492,-0.2967460017664106,-9.123540843140447e-06,0.2769725657089921,-0.00353121459455152
673,0.1759592100924162,-9.605187756690647,-0.1188669771077326,-3.1414629419245996e-07,0.27549978529305835,-0.0048557568030836015
674,0.45862314679683497,-9.248846111805015,-0.19082998513108476,-1.2896444077131163e-05,0.2746783174415657,-0.007255066886633249
675,0.0397517507702427,-9.262253837279744,-0.5112074767562667,-0.000858729315728928,0.27467068778157305,-0.0055676099192944065
676,0.14744381316719643,-9.87935739510473,-0.4962710677938336,-0.002355360184688179,0.2726393339470315,-0.004547004158566318
677,0.358339273510479,-9.934300654659939,-0.25690186273334775,-0.0017956955885024412,0.27281634107523695,-0.004146135317604861
678,0.583670728311742,-9.402509237988163,-0.11495906380027296,0.00022518867517392732,0.2741656095769311,-0.0029167737854631053
679,0.9090068586534802,-9.017745739017691,-0.4947573894689838,0.0010038039180303203,0.272574392297767,0.0011911481302748666
680,0.5004115132303439,-9.430371009336262,-0.5718351901523073,0.0010035620422576045,0.2751602746600669,0.001182206330454563
681,0.3229269049049074,-9.6512866276754,-0.353213110583925,-0.001603696314918261,0.275729202094133,-0.0015191579127408303
682,0.19687685183552783,-9.413431535101756,-0.2627014127726582,-0.003151067644815474,0.27388277173190045,-0.0017406909003029956
683,0.11806404894106742,-9.101005569062732,-0.49185414774713565,-0.002921839311215818,0.27141544257090694,-0.00015630926005590255
684,0.1814242236559718,-9.460727905361741,-1.0333216454916416,-0.0020514331804478824,0.2712588107631245,-0.0008681216969202008
685,0.2381871698464913,-9.368771079905368,-0.6875288788553532,-0.0003973218434085732,0.2669349451066684,0.0017126684197017036
686,0.42055618931046235,-9.036374119367984,-0.4518058787674827,0.0006201742261051597,0.26805770585816613,0.000925672214958141
687,0.2763291024118013,-9.192277439584615,-0.2742786009788389,0.00013128849490907918,0.26695324285746425,-0.0025989218119136038
688,0.00736162573803411,-9.481936132261993,-0.17767173224459715,-0.0007975580970901173,0.2646454825114252,-0.005492845424185445
689,0.19471879680825074,-8.968253946199695,-0.2288787571698438,-0.00013985588217503336,0.26718487484056314,-0.003046617880711702
690,0.3561995920054145,-9.47657000577767,-0.48889689389808405,-0.0034798536365475497,0.26891175114190957,-0.003092691829989767
691,0.1200532638280757,-9.58046144522297,-0.17158415631535356,-0.004167087137428151,0.2658897017544051,-0.005768381948687031
692,0.0453763143502533,-9.272995778169753,-0.0828925676761722,-0.003262339305471636,0.26437158818772627,-0.00640054298900058
693,0.18236491162504362,-9.014348632478155,-0.17021571563048205,-0.0018551253801855979,0.2647173803807952,-0.003212418034784807
694,0.25874760690093457,-9.475767843772234,0.09763888690340082,-0.0009946688729171574,0.26399609931989365,0.0032491531400263385
695,-0.10923287185147881,-9.107638026790092,-0.00986293391424645,0.0015211464752304053,0.26744995570613367,0.0015706318869801845
696,-0.13721896480561785,-9.237620073694519,-0.2683528413910353,-0.0006097700638005826,0.26816270495790717,0.003870118468264785
697,-0.08221889230441351,-9.5004504139883,-0.524910255115383,-0.0030596698153036034,0.26722229382398144,0.0058613695915943394
698,0.04623216547294895,-9.649391634840955,-0.6422388916041842,-0.004233840903527507,0.265254838826635,0.004478375095171299
699,0.3507273246049154,-9.514712540784297,-0.4835745372689462,-0.004156893194654756,0.2625928484188675,-0.0019472211634797298
700,0.25237084025752826,-9.269901484079412,0.224129275761134,-0.003332710864109853,0.2574129248308933,-0.00022262875896529355
701,0.3780170108758334,-9.533941101672514,-0.23001892351883338,0.0001495796543692588,0.2604313963374021,-0.0005102150232286256
702,0.4457198502732377,-9.734072206407866,-0.3370573450614492,0.0016307602633016999,0.26000967670188607,-0.004101102374388533
703,0.41689727543807364,-9.660139356215415,-0.09399945202409621,0.000813389367241156,0.25712350001596385,-0.006811530820410892
704,0.3860592936122816,-9.351857693631699,-0.32383644002541523,-0.0001251790627758761,0.25942619058978383,-0.001995090646349682
705,0.2030477257221628,-9.599216441802294,-0.31214039618335065,-0.0026243924495424503,0.2559847833945891,-0.0028623949623700342
706,0.32213269698871555,-9.727097459268858,-0.19934268130704455,-0.001832627419825371,0.2559437420130366,-0.00033393870080905216
707,0.44210774303132666,-9.559444017416002,-0.18515241323770681,-0.00016982231341040443,0.25586141907840554,0.0007729489359264428
708,0.3763798674278945,-9.399407563079855,-0.15104029884616632,0.0005291851071671252,0.25500797336638875,-0.0010635956308244416
709,0.04646669660834297,-9.746430646797817,0.16675894418847695,-0.0011519129765703204,0.2543201600314662,-0.005020897719853948
710,0.24807302273333545,-9.17457616623386,0.15799586764222529,-0.003673830126491789,0.2568956071302141,-0.002514100166630936
711,0.10731540071339071,-9.425264958346922,-0.06839995255090484,-0.004845498100208414,0.25674546565924944,-0.0033555480191742554
712,0.09022786414183766,-9.573086462306385,-0.4642621665070266,-0.0038448372844213205,0.2558935449748531,-0.0055009240644720864
713,0.22398446475222772,-9.361188123081153,-0.7142934062874579,-0.0023311890981397828,0.2540082360888857,-0.005009556737558144
714,0.2983055139553274,-8.960587443994644,-0.4030281936841803,-0.003019147838160168,0.24986298520422384,0.002124671757610734
715,0.4118314063363638,-9.44531948667434,-0.3132317270881519,0.00034282285744199176,0.2498768978005935,-0.001229384995616649
716,0.33006700341382833,-9.337553963374656,-0.09616160170362589,-0.00032088918787812754,0.24986757538168242,0.0007761686244350542
717,0.17247317150890853,-9.4160001294624,0.05069749673253378,-0.0020006070242473755,0.24703301115461537,0.0023035331045446984
718,0.14077654279171015,-9.480222181406717,0.06328085740982071,-0.002924120749376373,0.2444268347285157,0.0020491748592466217
719,0.43116408051829325,-8.905321911876912,-0.04776275409221172,-0.002165950398995669,0.24767058810963274,0.0015227493291241005
720,0.19872960258298183,-9.427529415658025,-0.30545293262194523,-0.003039363872893041,0.2467797161027932,0.007454903766389569
721,0.16742942328349894,-9.38736364257903,-0.32733696447871446,-0.0031889927426375477,0.2445565254028076,0.00459643227994646
722,0.17411937161302227,-8.982745929598101,-0.3395525490638098,-0.002251595706879116,0.2429313578977692,0.0013835536018147886
723,0.1232553256753223,-8.814933139863655,-0.30877894130480266,-0.000824839257303765,0.24207253609558982,0.00046728483452246274
724,-0.018059505875884507,-9.567262222901913,-0.08929851934318923,8.86778528040245e-05,0.24129231189714873,0.001037373931096102
725,0.22024700097574487,-9.077993486080453,-0.0361387626919635,0.002626874488302394,0.24217688743930815,-0.004027170658350635
726,0.21946732366075827,-9.235147075543246,-0.1930366394102035,-0.0008668843063592295,0.24511753267500894,-0.005777830780325503
727,0.03820739590164618,-9.661647273693546,-0.292891744328058,-0.003574945817756951,0.2462011467382983,-0.006662926489063388
728,0.02968916956676136,-9.729400795735602,-0.3821928490269326,-0.0038974576870287074,0.24457074025390357,-0.00827500262237698
729,0.6023046057180228,-8.843188090389988,-0.625265386548168,-0.003084052441643683,0.24105050303862213,-0.011431816003469467
730,0.22600541933440188,-9.563085123403683,-0.29759139388083006,-0.0030891062159764736,0.23587539508646066,-0.010564795634484692
731,0.5389373957733673,-9.342895479462632,-0.19131094430627693,-0.0004317853770050489,0.23275931666832295,-0.007633731140228403
732,0.4919814933529657,-9.219640275519168,0.08141312640207785,0.0010406079749566513,0.23348127985623013,-0.003756212319214452
733,0.18304166421109525,-9.420448460262367,0.28910305369695927,0.00026973926788376797,0.23483665294186534,-0.0015773409709023039
734,0.26781690832616384,-9.728878075808657,-0.07504895582408908,-0.002177307396509088,0.2317173900328892,-0.003742093642871978
735,0.38134280070717824,-9.658044211312296,-0.5381566910415324,-0.003880279526767936,0.23427971621133445,0.001320564493896397
736,0.1653051480292017,-9.44642008721532,-0.29672168307008473,-0.004895259567873187,0.2354707677169264,0.0036708112811065247
737,0.1798068667564567,-9.541926462458921,-0.2359681590847815,-0.004808235490274893,0.2329937786120463,0.003969428369124174
738,0.3029876545899307,-9.683783651430074,-0.24779705360128843,-0.003214082943168272,0.22991275729323446,0.0041810147771425
739,0.08656558232946734,-9.313577451775409,0.2129259154336888,2.0250677408307133e-05,0.23134411312632205,0.006577986779589204
740,-0.32985913498202646,-9.20997140317372,0.37664518420557663,0.0016964155557080238,0.22789934528001962,0.0057616258610424225
741,-0.11501966513059497,-9.152428667146783,0.10669524300379787,0.002069004179885744,0.22725846181204792,-0.0012230219707228735
742,0.008366871917177249,-9.27088161548474,-0.05511047707912259,0.00023752676811040325,0.22918832722309057,-0.004560514143116679
743,-0.0068205768516365235,-9.347063282891153,-0.16227422798769772,-0.0025872465143791474,0.23106532477967404,-0.005564291951244132
744,0.09909497692860644,-9.05987418444616,-0.5091009270353124,-0.004088013606960895,0.22946027950214878,-0.010150668522327305
745,0.008567864469608041,-9.358826916397678,-0.39992921622223027,-0.003280916913661426,0.22943886234811858,-0.005898131350578739
746,0.19839322380114205,-9.280137563794687,-0.25621909559025047,-0.0017602112006759659,0.22736328867003436,-0.007783947805097621
747,0.16593225302339537,-9.531639580939883,-0.17260148523277025,-0.001011644726509617,0.2219058624265969,-0.008790705909162151
748,0.024742482268064817,-9.711497150498413,-0.10768620146633023,-0.0010184456210544004,0.21731435532983912,-0.007666185099581411
749,0.158687662400491,-9.035758684054946,0.02807971646959883,-0.0010310129047017055,0.2198418705911107,-0.005784214435767679
750,0.2580228182338978,-9.464446995418603,-0.00724747855495767,-0.0010643728329175382,0.22154035827938814,-0.0006993191985073453
751,0.019188050843476467,-9.969055989529119,0.08268222990458737,-0.00309304054269812,0.21978219926908066,0.0002632845667073023
752,0.1264864095854924,-9.713457486316571,-0.12464367596236921,-0.003735404464226062,0.21960055259788158,0.0002561994053954017
753,0.4132131691294342,-9.174242999222908,-0.47429218512350924,-0.0029109830714471635,0.22078461260573007,0.0018308564527652316
754,0.3347352781556199,-9.393721005900414,-0.561892004289151,-0.0021057895672047604,0.2204592787993664,0.0063876519754370795
755,0.12725692311436543,-9.766458598597014,-0.6646477516892482,-0.0012420924377345428,0.215308397500034,0.002173056220769726
756,0.08997659677727696,-9.750208792108147,-0.3446674633131962,-0.001748319827333152,0.21363016428198545,0.0006749749331080312
757,0.07621915632741261,-9.539490501049059,-0.11290414138155333,-0.00212339199220583,0.21324518508437423,0.0017213763697717203
758,0.06112401812625415,-9.27671833467393,-0.10859524696623973,-0.0016141856758948585,0.2127051189791581,0.002961615212207864
759,0.08306972869854617,-9.113968207111808,-0.27780020351079315,-8.303772757162591e-05,0.21129918239122553,0.0012880222786067238
760,0.27244266124794725,-9.513128824481566,-0.3986298194276091,-0.0009070536634488636,0.21475572769931486,-0.00043140735743171164
761,0.29367397714389776,-9.33301561619038,-0.3791142896586284,-0.003066368534805029,0.21403558505805442,-0.004903254407658278
762,0.31151682045485773,-9.371936443818896,-0.43618545816302423,-0.00414576435695496,0.21329477474715378,-0.008101641021241094
763,0.31122488735243914,-9.493499485462442,-0.5242446185499029,-0.003878387068104387,0.21330028102311765,-0.009267244461495626
764,0.2252422768531434,-9.237377415905717,-0.49304550471127057,-0.0030942979824953505,0.21298185522200072,-0.00936122675086246
765,0.3950417796817171,-9.805672283236746,-0.4900620565149255,-0.0030827446008416526,0.2078192003561225,-0.011040828517142085
766,0.3526769606318544,-9.754489358999084,-0.32207489739133777,-0.0024429060038718355,0.20331792174703778,-0.005135276465197668
767,0.2430102675253364,-9.552365705826595,-0.04058316144466759,-0.00021768349288419687,0.2028697953765245,-0.002241584771938813
768,0.20887752678575341,-9.401908032312848,0.09704855424452741,0.0012899039165722305,0.20491165876361908,-0.001487186669489104
769,0.34289838200281675,-9.361799720561047,-0.1790642993048023,-0.0012407962611265355,0.2054299411838096,0.002402943631431539
770,0.0473395932176337,-9.084602364104413,0.008634547586907595,-0.003739934242469342,0.20112683900581013,0.0015394155489459043
771,0.05789087596665634,-9.386029737094633,-0.06227521031429518,-0.004889972763944133,0.20382685519770338,0.002048174927554711
772,0.16429149298823248,-9.336648877592474,-0.24230841776936834,-0.004798336890597353,0.2047233041676224,0.004330146135203373
773,0.2985361632165996,-9.070882234055203,-0.4172932038651166,-0.003980253689505298,0.2021739707932501,0.006943102544714655
774,0.41942847714847553,-9.14707816381006,-0.46300066988908445,-0.0029887363398697743,0.19797113249678497,0.007817931513567297
775,0.09450954378206122,-9.195363264107314,-0.014349982667943517,0.000345809758941935,0.1953784166759418,0.008715328131138211
776,-0.06968752518485313,-9.414696483734769,0.10680731983343919,0.00027781373478191583,0.19489595312779198,0.009565223800950089
777,-0.005120321234309555,-9.623035060746783,0.018119729363913983,-0.001006740010158944,0.19491396777682513,0.006080482207394277
778,0.1006317552529207,-9.737687672379232,-0.16004363622218584,-0.002632608950516418,0.1957650703180472,-0.0007309877320207485
779,0.013629099606561522,-9.698282630346942,-0.28193138856388705,-0.004095706965616397,0.19832582555641662,-0.0070415699084957605
780,0.46675399764477266,-9.178463234456606,-0.05873643344075262,-0.003266642450012241,0.20004438430524898,-0.0061883640752439205
781,0.24301645166150615,-9.25983759677341,-0.2831402676422057,-0.003118668730994644,0.19613395782647586,-0.005324528485319866
782,0.19816679158257497,-9.261276678133006,-0.2267437227301507,-0.0016880174406222522,0.19292354287328617,-0.006853206171667115
783,0.28533266476560004,-9.400229940795041,-0.06972890894371342,0.0003040221979475672,0.1917575182392165,-0.009411761917863378
784,0.1318434030156086,-10.10382398970002,-0.3244386490543709,0.0009178658240806987,0.19158584254526123,-0.010194759954346546
785,0.243411952424585,-9.642619658602602,-0.5989219055581699,-0.0015869656129146956,0.18900197411045255,-0.010215904370549719
786,0.20526244708179003,-9.45375903243685,-0.6551173874432213,-0.002738993647185907,0.18711241981426047,-0.008141040848943144
787,0.3279817260245369,-9.31449910544666,-0.49528004873404086,-0.0021820663398379255,0.18732368032066185,-0.0031771321600988084
788,0.4531494042634371,-9.279675535192123,-0.25260430553496727,-0.0008065150571955608,0.1868264041609214,0.0011950628921869003
789,0.2783248119971442,-9.48321420611864,-0.11255691413690405,-2.3178556714457883e-05,0.18207690845606894,0.00031301509257678086
790,0.23330592363914712,-9.652848195381488,-0.07968133700753494,-1.2194645562318738e-05,0.18294689640750003,-0.0013866505766719753
791,0.12692382987933115,-9.641570619375065,-0.20266098826316856,-0.001401767491730172,0.18167475411484174,0.0017724234439413632
792,0.08903920810224147,-9.519550120635111,-0.3031256069981118,-0.0021287695735811123,0.18191015611370054,0.003103695927127486
793,0.061594671319628674,-9.361681163884924,-0.28345892481441026,-0.002117872969353083,0.18143314427970658,0.00144139389997829
794,-0.0469504312416678,-9.262136333867709,-0.12015434793295728,-0.002095306350351986,0.176826952409161,-0.0019367893882439979
795,0.2119081768168783,-9.43659024552501,-0.2230401944785939,-0.0020734140091529935,0.17942943239444015,-0.00533989975808721
796,0.03479452663657901,-9.46422897398458,0.14476970192947597,-0.002060210052332992,0.1777783079382242,-0.007335092336246765
797,0.010792541129061167,-9.269016162911395,0.14689417731339158,-0.002061459746199721,0.1742062680554492,-0.007079892188309339
798,0.1878851106416657,-9.141045710164235,-0.06816303874725102,-0.0017926425300964963,0.17183877257878585,-0.007010082378226136
799,0.39056934956842315,-9.438214226945409,-0.01951991650972363,-0.0009375737304310478,0.17351473069777912,-0.010031891688050064
800,0.5129032853238503,-9.50553156266328,-0.20417787941349372,-0.00011395567578172092,0.17436745382235558,-0.00832815975270364
801,0.3578673198876813,-9.687403126744023,-0.3180247965157717,-0.0006502430095614303,0.17594041936636384,-0.008737130165703457
802,0.18847739366258223,-9.753639209267847,-0.21207216511461824,-0.0024492897682131766,0.17519084138302857,-0.0076593272688131285
803,0.13238617042036327,-9.656309816933785,-0.05114709434078692,-0.003888682599105812,0.1728742611497538,-0.005397293141012861
804,0.2522780172569437,-9.45933391351264,-0.11157947324433191,-0.0030660667228279413,0.1713311119613912,-0.0034972488919968094
805,0.49498854579566426,-9.561028573672214,-0.3929878645910847,-0.0022590558241653218,0.17217138199968193,0.0007531051786129558
806,0.39003736825379615,-9.382010511340443,-0.35649144209215,-0.0007537779498517624,0.16804572085601646,0.0036291698691179554
807,0.2517106685701892,-9.342559914787348,0.02074418600956826,-0.0005358733499764174,0.16335918094769838,0.005706139624136221
808,0.14658899180362606,-9.366552540559848,0.28224364099516625,-0.0005640025932745994,0.16072453751066906,0.006860803368804217
809,0.054308047214721655,-9.213643925028226,-0.09016547341830818,0.0009800214605334037,0.16165099415980208,0.006812196710636943
810,0.042563989382200074,-9.036161558428166,-0.14136220861188714,0.000985392516063505,0.16337852476686127,0.0059578943750071885
811,0.061529319356675355,-9.260998511438245,-0.2894112320291544,-0.0017488377422740444,0.16512264943044408,0.0022670615805284473
812,0.28573170441717405,-9.363605373205655,-0.5424291849689702,-0.003633653768490248,0.16487041772611966,0.0004466126582945137
813,0.4438131762911637,-9.32048026870164,-0.6815127115483908,-0.0036506571084510423,0.16427221052966468,0.000448476380155738
814,0.1649292052888368,-9.308424833582427,-0.4472248004720414,-0.00198033125096986,0.16546536405755824,0.00033391637417397074
815,-0.10175877465794261,-9.504678449505452,-0.09170454089299583,-0.0002984728413370667,0.16030055336845375,-0.0013248254128449173
816,0.08292970822041193,-9.413225158803225,-0.0725201198989248,0.0007057524683075246,0.15657300468127938,-0.00510359322182561
817,0.21457700771557542,-9.550312311618116,-0.12028409762707618,0.00010577250727749124,0.15413023679710824,-0.006894529267131969
818,0.21383290195243285,-9.639048585360946,-0.13756391102589355,-0.0010214463851817574,0.15353412641804817,-0.006070778551098714
819,0.16970711496634167,-9.249256342902475,-0.12438044049971658,-0.0011679262303705223,0.1552469503455593,-0.003732182820286345
820,0.2108113173801572,-9.47835275788498,-0.4293842339814581,-0.002838397653017188,0.156972484448671,-0.0037582055680218567
821,0.043856577304099434,-9.684288254763382,-0.40111461646013935,-0.0031288614199984606,0.15654955646762825,-0.0030570614552295197
822,0.10857212577435107,-9.673485674641558,-0.5275052330170671,-0.002637901457787193,0.15469393488823435,-0.004161943088661979
823,0.2989468940798663,-9.457678195639387,-0.561803690578664,-0.001804331704764392,0.15267442895589908,-0.003893379690883711
824,0.32670593384313146,-9.190155275707035,-0.12404565252217298,-0.0010066047933382043,0.15164579159370012,0.00192434958457385
825,0.21220136997602412,-9.521564611285523,-0.2100284548573057,-0.00019926622426569027,0.1490384920773694,0.006185828556144489
826,0.12126360013116508,-9.281829278480696,0.08180216122822664,-2.5549336447516927e-05,0.14862374951432777,0.0012720001216542953
827,0.14568569728815733,-9.243446506545014,0.16727326568883186,-0.0014680761546403262,0.14713275727476882,-0.0006010080417751799
828,0.21264692251115663,-9.350347980559272,0.03659714248630783,-0.0031381209360470045,0.14597974040126405,-0.0014491419412689987
829,0.18973011702416281,-9.314423188831746,-0.12916238925149426,-0.0030355250555824946,0.14730758848374112,-0.006770293846618158
830,0.002314527446848541,-9.588332504103843,-0.4297410465690717,-0.0022115091197053216,0.14385104317565175,-0.005050864210579642
831,0.059958137487617025,-9.283018037634553,-0.32541602840863887,-0.0013781688510733124,0.14613742858185835,-0.004763385742385464
832,0.2460479728793055,-9.237657503317532,-0.3757171717687695,-0.0010256794518235452,0.1435648096370647,-0.005244261115312859
833,0.3656947539929395,-9.444314252651186,-0.4055263582522343,-0.0010178478905238408,0.13868228567357851,-0.0063581768695415795
834,0.2467573192151854,-9.60899061783524,-0.10237430129337867,-0.0010066913164260452,0.1377572692681332,-0.008052365943173804
835,0.21935451760596317,-9.718637555749227,-0.3339719242946908,-0.0009954655295011609,0.13604137485726403,-0.009743089812602823
836,0.2600586797031214,-9.44514104652744,-0.4335536474260249,-0.0010120429052907463,0.13574172204037793,-0.007195921734610314
837,0.264952314771178,-9.47855825384865,-0.33159535646595506,-0.0015317658416464167,0.13672485172100507,-0.00232480960813824
838,0.23592176896179096,-9.571100731706645,-0.15615593970615765,-0.0026681427553644646,0.13699296633927605,0.001048410828065146
839,0.19273565744511723,-9.265608943962166,-0.08622184925619339,-0.004047246768866035,0.13470563601750926,-0.00015539787942647982
840,-0.031869448601901,-9.272071802802833,-0.05023119089047656,-0.0024054675097338234,0.13554523885192438,0.004104185225758305
841,-0.07220624758083527,-9.170922329966745,-0.1356489290684498,-0.0014413512385492789,0.13424081645298155,0.005529529286170109
842,0.009521936571745583,-9.471521163139828,-0.3287961925976835,-0.001083973157511786,0.1315158998622071,0.0039084732487875695
843,0.08932611763663678,-9.737385921543396,-0.4759855791385815,-0.0007814218275250945,0.1298207464545943,0.0005233214856122415
844,0.057295417706230936,-9.376207039689644,-0.42473736198831924,-0.0001422741246542545,0.13118771486644504,-0.002576531020347924
845,0.1527158875954641,-9.382076524421509,-0.4780580969313177,-0.0018123423957862594,0.1286031753325197,-0.002587649835779858
846,0.26819344051416455,-9.258391115551351,-0.2959607013063425,-0.0020668197506705415,0.12747367844029384,-0.005426189515573581
847,0.19833839005468393,-9.381825674033037,-0.18870804772982486,-0.0010676280874067135,0.1271310704522191,-0.008309009700302164
848,0.09230515258707371,-9.594533033851837,-0.24049246748931177,-0.0005166434809189247,0.1262639551696944,-0.009413911308560693
849,0.16786761898964392,-9.60297287911783,-0.38114040729261567,-0.002050412819188646,0.12374732541394828,-0.00787555977876044
850,0.1487835250117927,-9.581837941612736,0.06604221037798508,-0.002050251619127363,0.12202394323882314,-0.007869600444086713
851,0.19695243174802896,-9.296576974545493,0.08750485942515654,-0.0020641384937249733,0.12173437856766128,-0.005735150573266507
852,0.10954592065501767,-9.495801420407515,-0.08735056874665395,-0.0011012529579644095,0.12273276429216048,-0.002681848781485851
853,0.08930775164480985,-9.7627403064854,-0.32465945884501357,-1.5281336164480826e-05,0.12327370835614879,0.00014882544687198055
854,0.3698049921255581,-9.448851626946325,-0.4724555509700282,-2.619656682365986e-05,0.1216188745316711,0.0018519305713395346
855,0.3115740387059609,-9.319565858641454,-0.05116433381532478,-3.718047797580166e-05,0.12074888658023987,0.003551596240588781
856,0.21801167774892005,-9.162635439923644,-0.281311524707462,-0.0021421881244256358,0.12133445066381149,0.003796517046549255
857,0.20401441018411146,-9.146000168179249,-0.5423740483281028,-0.0031692811050863627,0.12016306790641806,0.00378823364092846
858,0.19888481247980863,-9.20647086620215,-0.5615334748575452,-0.0025874736428559892,0.11846667987897985,0.0017793729615494128
859,0.12226799794775621,-9.220038445091983,-0.27139411505591393,-0.0011077263029982492,0.11810213094888845,-0.003834025144112484
860,0.32240631684363497,-9.231282808059039,-0.31724936144985905,-0.0019262682468257745,0.1138059873317655,-0.006374984593165479
861,0.2455503752376011,-9.486183762738172,-0.212770887744129,-0.0006468458335706425,0.11385046960774498,-0.007477913808907401
862,0.28973742022162075,-9.668993538603038,-0.2992351110957435,-0.0004559287669877662,0.11318419080513822,-0.007819899559981473
863,0.3728642974611716,-9.649733468086648,-0.39686261547238344,-0.0012964467969467197,0.11116210545466494,-0.0069526081487954325
864,0.3022483213403589,-9.43290232350305,-0.23235833325335037,-0.0019937163056751974,0.10896298316944272,-0.004485737429374048
865,0.24940006109400165,-9.554356979360394,-0.14668896792857306,-0.0011693950358770458,0.11067739675144196,-0.002784975747654389
866,0.1874804877107285,-9.55277230626396,-0.22070995892107076,-0.0010625869976402247,0.1065724586242549,0.0010732967439581525
867,0.0910757958341605,-9.450374031979692,-0.13684744904915125,-0.001063758796696657,0.10395544423388682,0.001299553607407822
868,0.07315929089700846,-9.409840738316374,-0.03627558706605505,-0.0013531485110464241,0.1045714724306582,0.001662214536708999
869,0.24407335478320952,-9.544265262053491,-0.1610277525621431,-0.0021452076423529136,0.10767037958281354,0.006945645874861039
870,0.3737473266839622,-9.23940027199472,-0.39175897068003573,-0.00213967538676145,0.1076745280147479,0.006097302873905052
871,0.14982185436671158,-9.33308429547151,-0.3892044864267674,-0.0028528372264594003,0.10766873700120161,0.007388938402338236
872,-0.0014712947707313066,-9.233703455497942,-0.2652261466484279,-0.004161935714925183,0.10614920991354332,0.004030135034741834
873,-0.003191299823633989,-9.146490247201019,-0.12292410029198592,-0.0037862697136201856,0.10269335164391573,-0.00040045407699686674
874,0.10315999440824825,-9.367458579362912,-0.07307429639563084,-8.665297827733078e-05,0.09825967885408685,-0.0006642673179097956
875,0.2343019735380661,-9.016869556873662,-0.2678056123804599,-0.0008995238029410903,0.10086282993848257,-0.00407740328852342
876,0.1978409759446595,-9.287528171215877,-0.3441482557492821,-0.0017500865040689384,0.09906411209922997,-0.0017344808225319835
877,0.1465531493249999,-9.391936665757184,-0.5460416114957087,-0.002079778583252808,0.09648416363957202,-0.002887575376526734
878,0.12441837838794118,-9.466500761585719,-0.7559427151066543,-0.0014809019616807528,0.09480875405228087,-0.005941577244455095
879,0.15249740808695597,-9.790254921083092,-0.7830950476712026,-4.874735873689188e-05,0.09464403122034878,-0.006608501474144104
880,0.3237649181445622,-9.630413827522972,-0.7190437181353826,-0.000888886774735961,0.09291716781716561,-0.005763428173087522
881,0.3466107984439371,-9.680976321604433,-0.7853376012674961,-0.0017673285009932732,0.092622304788524,0.0008272743393267976
882,0.37252492967975237,-9.469178011937771,-0.451816698362385,-0.0021302819423139638,0.09363252484070778,0.0049069409018913865
883,0.33082148624446217,-9.351393332733123,-0.17093607477795023,-0.0021356212113911918,0.09415243525504881,0.0057163646843860095
884,0.17069526410700736,-9.715572891210149,-0.47461190713593643,-0.0021293866620051547,0.09251831765191225,0.004789499217255125
885,0.43102187939450587,-9.411158023337768,-0.338117795236479,-0.0021182414751108767,0.09166411432860606,0.003095795680489976
886,0.5563640978815727,-9.481105909752607,-0.5756254288870981,-0.001430709367810447,0.09005399364391324,0.006454186756772251
887,0.41929277573635254,-9.361545849548513,-0.4604369348003225,-0.00010640385336801777,0.08832073739366147,0.00817675217782458
888,0.20639595753294102,-9.243612585987382,-0.2506028340071357,0.0009951849634826555,0.08660755908467888,0.0058229348415845105
889,0.15550042651172755,-9.431205659174534,-0.3266592087134608,0.001039614605050169,0.08491729130423223,-0.000959442684207762
890,0.16186179117100852,-9.470535736783507,0.13792964205536665,0.0010840443147358402,0.0832262952754524,-0.007741817691767268
891,0.26350722838933605,-9.585085706636974,-0.3183954928873493,-0.0017492739512754364,0.08370884873549411,-0.00879370695274563
892,0.30079862993315304,-9.540724393882204,-0.36721066939701474,-0.003086291559150592,0.08456944310366446,-0.0083031092870311
893,0.2812406944792307,-9.3905576697432,-0.14579252013595478,-0.002503438803556606,0.08421760150216151,-0.007744352798075432
894,0.27763369812888183,-9.286966843855714,-0.14146183854723376,-0.0010023684808904154,0.08171802381339877,-0.007717688387011805
895,0.46309194473411813,-9.454560969010942,-0.284911945996267,-0.0010022072808291327,0.07999464163827397,-0.007711729052338077
896,0.27506271555478173,-9.555264026027853,-0.1457453783400255,-0.0010113383189193693,0.0767947538070341,-0.00625469476148139
897,0.23337067811813658,-9.601333539891051,-0.25025089914120774,-0.0010322747894966039,0.07540729402361024,-0.003019776975093504
898,0.32019486013561377,-9.570463794483315,-0.4236608437461094,-0.000765649430053173,0.07599428432298504,0.001224167429359635
899,0.36381243971733374,-9.46233647499375,-0.36109296101020893,-0.00012891119522582883,0.07716580157214711,0.005208388518817175
900,0.20771433769340875,-9.457469579656246,-0.2341645191496556,-0.0009744215910742047,0.07371059846229217,0.006907766953313144
901,0.3422587004226836,-9.30062749836771,-0.21194963746028905,-0.0011030419521360483,0.07246510863240509,0.007883430844316704
902,0.24281700059896075,-9.430635882035398,-0.2508910219860966,-0.0010952757424862506,0.07317006576262128,0.006680077803159237
903,0.14039357637775662,-9.546064271412599,-0.35887300325641447,-0.0010767329938881753,0.07338124776387514,0.0038331309151057795
904,0.3399088408996371,-9.300232658262402,-0.5279280292039837,-0.001142293424676146,0.07099183269943662,0.0005349108923210428
905,0.26161512201614484,-9.396129537421155,-0.5841387268239504,-0.0019611578443073457,0.07014326253217568,-0.0020179700238896546
906,0.10341831114159047,-9.286094840538677,-0.29809460841685387,-0.0013373957930963931,0.07151489485806543,-0.006737122423813623
907,0.005413926193673011,-9.552664410991,-0.13512550336059492,-0.0020020099769611655,0.06959943391640974,-0.009261501139826538
908,0.027557737890725863,-9.748846799289936,-0.146706413214929,-0.002480236363396309,0.06621246317618573,-0.009802170564619853
909,0.17286036678196262,-9.411644281475096,-0.22514254809202083,-0.0008116085110342289,0.06448633238827621,-0.00950620824573841
910,0.25604744309567307,-9.750857199001354,-0.005631175927190771,0.0008414823296596366,0.06274835361950079,-0.006935165908843843
911,0.20177239480008557,-9.579770962878486,-0.1620025144790492,0.00035450675945134733,0.0610163416845622,-0.0051157668311029685
912,0.30796977112562157,-9.443330627658941,-0.30373134242285627,-0.0010151880104723387,0.06136476258632797,-0.0008611716143172583
913,0.41192816247295955,-9.49736775811376,-0.47392800473050567,-0.0021157834102996775,0.06214542075150789,0.0032443327362789596
914,0.30649542578955163,-9.678815903489062,-0.7177684507252028,-0.002032545996479587,0.06155686092509564,0.004278424921073682
915,0.272241923778032,-9.236340670497622,-0.39680528865697245,-0.0012137622525600176,0.06326793127953154,0.006828323372137267
916,0.3530253738668664,-9.102608108383626,-0.3356167420731894,-0.0018236556705727757,0.06128573696877957,0.008645240092962704
917,0.26232396655639845,-9.144467374505169,-0.28633586709515985,-0.0021651712993811262,0.059738239258655214,0.010859900920199391
918,0.10690526183655895,-9.27050305292671,-0.27533671336335863,-0.0018620851471834504,0.05887845453452332,0.010367996098914714
919,0.05866717018716023,-9.392917144141176,-0.35113391635295693,-0.0011694684264377964,0.05776280306059866,0.0043472194891626655
920,0.04007241195233081,-9.42684699056887,-0.2848668846353801,-0.001960424497733027,0.05434909658595022,-0.002439231198206903
921,0.17877978669159078,-9.460304253010323,-0.40457519177421913,-0.0005932065466829681,0.05538246028714852,-0.009944353315358397
922,0.29066978978310914,-9.495799992485075,-0.27409704758473,-0.00042786450567567486,0.054494904203016586,-0.013435961598431821
923,0.3532726670942245,-9.413087246771266,-0.18531368095757442,-0.0009601141843533871,0.05222106692280163,-0.013671554944245635
924,0.3869865519289175,-9.208137107879587,-0.41839797152075225,-0.0008749649871747705,0.050777547651885926,-0.012535380380619625
925,0.41243201056605244,-9.726821083602719,-0.08248516054056332,-6.241671399498861e-05,0.05162277911696527,-0.00913416867497198
926,0.25037895043784064,-9.886150049426721,-0.08764992472869602,4.613576987666441e-05,0.047283473927173525,-0.007915718557463843
927,0.27050116003773617,-9.756551797273278,-0.06323794411988128,0.0005374178159083127,0.047894070242192194,-0.004988081743094128
928,0.29194584869179774,-9.554239403613229,-0.0767142187501931,0.00043823482091966435,0.049688118748230196,-0.0007524140557958684
929,0.11434921792540746,-9.485052421191465,-0.21457783005137723,-0.0009771305692997643,0.04737393878282037,0.0033868750174415375
930,0.22738577456342218,-9.435851367027333,-0.057464622900891216,-0.00016450162040880075,0.04735667006072451,0.006791069188234938
931,0.17285020588378353,-9.432081566854992,-0.1561076740088755,-0.0014981245777650675,0.04437803529446947,0.007983591396204491
932,0.2667911905949107,-9.221219763512606,-0.36180691162230716,-0.00010566874347430703,0.043035912900674995,0.009373877665164317
933,0.2841062500169671,-9.233275088950725,-0.47365631354111737,0.0014052532281811534,0.04177519826316532,0.010785404694855385
934,0.029647797776129726,-9.706965150007205,-0.32783602579396315,2.2169572518155047e-05,0.03882039347124979,0.010469167847405755
935,0.21363803715233642,-8.886832389996146,-0.02716944888902552,0.0009177225336744586,0.03972705789669667,0.0011420510717276779
936,0.222146737871196,-9.300513894888196,-0.09477762266234965,-0.001841778745193858,0.03911154768101076,-0.0008904350299072189
937,0.13600634157982472,-9.485551014482834,-0.3002758699663962,-0.002576719747011242,0.03880964370797349,-0.006961538540376287
938,0.1708208484741278,-9.521831162933978,-0.4343333784813821,-0.0013983834030968886,0.038522997163225055,-0.012874963698578925
939,0.43669282260572073,-9.691885124734615,-0.32420928955241957,-0.00011434207852911295,0.037459843086766365,-0.012660271854933104
940,0.2982108073305773,-9.334007035856246,0.03539463978142654,-0.0017954748608439476,0.034867006688972316,-0.010974704668452904
941,0.06484281123606336,-9.813319352975777,0.11271540143411259,-0.0013268330567621103,0.03524318017995024,-0.0063345234867962265
942,0.055499537719018104,-9.76916949785263,-0.13208262883208088,-0.0010117311802859,0.032914447267545915,-0.005413382631182196
