,acc_x,acc_y,acc_z,gyr_x,gyr_y,gyr_z
0,0.2500410463734063,-9.395368252554505,-0.19416725181057554,-0.0015417003370252528,1.5096759720835005e-05,-0.0005189461166899802
1,0.2072687219166392,-9.390482211646306,-0.22144762702448442,-0.0015050577163263873,1.4422978576573732e-05,-0.0007792767176646595
2,0.15130882002732304,-9.370124566609233,-0.1890231356611179,-8.058455088163806e-05,8.369864034075038e-05,-7.229315209277313e-08
3,0.2321237187386596,-9.368115178854598,-0.19856599848696715,-0.0009082602294795704,0.0009433588132131646,-8.148087219103068e-07
4,0.2354924745439727,-9.395862880447469,-0.19102324928508213,-0.0003379057359779679,0.0003470314574001865,0.0007229193165005568
5,0.25077072424368885,-9.385336274240512,-0.18683944623907833,-0.0005079723797363979,-0.0005026693162545423,0.0005516292061017756
6,0.2625963899902907,-9.352005960498511,-0.1911297609094893,-0.0007632363281178211,-0.001056634575758214,-0.00030609585057473856
7,0.23667515751099683,-9.336495494980408,-0.20896242056490447,-2.8061667933165227e-06,-0.000982417137109368,-0.0010716946828290808
8,0.22464913091704783,-9.371065249854427,-0.2803317414455996,5.5609954437325915e-06,-0.00013126313131296891,-0.0010675248364850841
9,0.2990325681974827,-9.388245734540481,-0.27724142073540137,-0.0007132755483016292,-0.0007144049860977629,-0.0003513998586323457
10,0.30020330366221654,-9.392184939888597,-0.20219638532196485,-0.001047255604826115,-0.0005455446906958154,-0.000518661412140577
11,0.26173074082717396,-9.389124952754344,-0.1463850403220237,-0.001040123412951444,9.692508570073754e-06,-0.0007766139744369914
12,0.25778676526680494,-9.384110604564793,-0.20196813921394566,-0.0010450620097039,1.063279490612472e-05,-6.140502093113179e-06
13,0.22170868548496003,-9.36418096423739,-0.2675186639816851,-0.0010450620097039,1.063279490612472e-05,-6.140502093113179e-06
14,0.2251651229744719,-9.385875667426886,-0.18933542938879344,-0.0010567865238390443,-0.000709643132613887,0.0007134757198943133
15,0.19207733043691763,-9.399989403464343,-0.25429252597784907,-0.0015506321188176278,-0.00053981400615133,3.5559717100175684e-05
16,0.1604447764419433,-9.393597072265319,-0.31436418197330973,-0.0020813612296564,0.0003155377759579727,-0.0010777269363593852
17,0.18732302744815624,-9.369671027584404,-0.16939506566956486,-0.0019116679610739725,0.0010823708752052087,-0.000990011156659193
18,0.21810965552866388,-9.363319311796957,-0.1954298894803636,-0.0002442680677070503,0.0010663921704155165,-0.000126678208133582
19,0.1849104821903429,-9.40485584231683,-0.25091909923104255,-0.0007095862831933896,0.0003509162832828199,0.0007206322945523758
20,0.19763121174256404,-9.380852632519339,-0.26721684086410946,-0.0010486332926486234,1.1312750918604613e-05,0.0005510175144497275
21,0.2113554958090918,-9.34843007870606,-0.2724333708425888,-0.0010450620097039,1.063279490612472e-05,-6.140502093113179e-06
22,0.1654269185753894,-9.390105301088859,-0.3012117973935857,-0.0008817209967232,9.171186005801545e-05,-4.780221573271352e-06
23,0.2245949694176151,-9.393467046524396,-0.21823081691032856,0.0007987318471837058,0.0009258535317023989,9.21434859845555e-06
24,0.14031126080060463,-9.386217410130344,-0.29363920529920773,0.00034723351526439676,0.0010605246676168472,7.191145985786459e-06
25,0.1746487993661047,-9.3853723010705,-0.30180972723641275,-0.0009968102474390468,0.0005664448991944777,0.0005065479058586427
26,0.2525120360300467,-9.39406672832097,-0.2743042385708554,-0.001515273636493151,1.6307037463565245e-05,0.0007617027793358707
27,0.23104423430833365,-9.408680479354203,-0.2913319846343067,8.229361257057172e-05,-1.0289624166056284e-06,-0.00016545361153146054
28,0.22912007005330193,-9.409655497809922,-0.2163315571763817,0.0009292832004215803,-1.1619340283509913e-05,-0.0018683498857631493
29,0.1990774439499909,-9.372302258135935,-0.13467646825050583,0.001047018368429431,-0.0007334099663458885,-0.0014084455513756213
30,0.228879676668512,-9.39309312471038,-0.1507411104378715,4.470200756476542e-05,-0.0005568472029749844,-0.0005596757000320138
31,0.26206891029396306,-9.416071643537089,-0.20277795296294873,-0.000754846650192344,7.680051080743548e-06,-4.435275029085446e-06
32,0.22005047082021992,-9.36434726733693,-0.19698988678791118,-8.119619064251035e-05,8.26115995265227e-07,-4.770868847623855e-07
33,0.18541551422964664,-9.34733711823514,-0.1915344503810908,-0.0009172390314774676,9.33228307127505e-06,-5.3894487986108215e-06
34,0.20742228926175435,-9.384712865241335,-0.20751333059645866,-0.0010426084779165585,0.0007325358326095052,0.000720402862995822
35,0.1511854040491633,-9.372099072764684,-0.20364867165509604,-0.0010464375616250198,0.0005676623831604326,0.0010634701857088816
36,0.10320893967379714,-9.34273167139477,-0.22138870526965293,-0.0007579213307028057,8.259358533640594e-06,0.00046996873312828147
37,0.17839184890823584,-9.360787802049078,-0.29684644975779456,5.495183109466278e-06,-8.383024729023117e-05,-0.0009844355223688958
38,0.21014055911626126,-9.407006217346732,-0.2512004833198957,-8.34278418254567e-06,-0.0009339426367129901,-0.00013510175656131847
39,0.2374070442760913,-9.390554604212488,-0.22906613565631673,-0.0007069233513949673,-0.0003366419004534484,-0.0007288178192991648
40,0.26328988303975825,-9.372379657110319,-0.16696252751079324,-0.002037025867507538,1.9492898950253306e-05,-0.0010788973458379426
41,0.25773333803191534,-9.363235506238937,-0.12323423902698688,-0.0028458821429581923,-0.00026701473664810915,-0.0004926428723657313
42,0.20220388519634247,-9.360645125534475,-0.1710407822291562,-0.002026667319152975,-0.0010423007937980992,0.0009670432752099606
43,0.22529385625672466,-9.374256805866498,-0.2265004114119716,-0.0011843686565110201,-0.0010518565642591627,0.00011845663751865156
44,0.2349377946074385,-9.37179892629445,-0.26549431961156067,-0.0003473688538285793,-0.0010605232906390387,-7.191941198634046e-06
45,0.28638073274684256,-9.376866744119772,-0.2904534632961663,-0.0005095920619085093,-0.0010588727798707712,-8.145120952100087e-06
46,0.30324351794862586,-9.375509937367127,-0.2654585717418595,-0.0010507191568109797,-0.0007583222173085832,-0.0003060787698855346
47,0.20319699995130547,-9.353819733068958,-0.1741229073490498,-0.0010387541065130837,9.43179885871365e-06,-0.00099024030174172
48,0.14354790804531828,-9.378690864430792,-0.2095068152704953,-0.0010442249115680047,1.0473415232389528e-05,-0.00013673668959012238
49,0.17271987916651738,-9.357317453859745,-0.18665409284451928,-0.0024524169053874957,0.0014684426311554048,0.0007155085283017341
50,0.1653854578605251,-9.360757493154717,-0.21850614911800703,-0.001621045816578548,0.0021462510781186427,0.0005581680563453182
51,0.15345037677636525,-9.380485230769157,-0.25765078288526205,2.092789559452813e-05,0.0021289012527208,1.0429594462349026e-05
52,0.19944375621584878,-9.38612903568125,-0.22993151862603547,-6.17562410673518e-05,0.0019645965085745925,9.144325135423436e-06
53,0.2436995340815759,-9.367597749938225,-0.2235169050027569,-0.0009145412628666659,0.000269995458418709,-4.111644815164996e-06
54,0.19873107628286604,-9.365213659147214,-0.20895984753036168,-0.0010496954952195956,1.1514989451866521e-05,0.0007167323812832194
55,0.22177424140831936,-9.37091291191117,-0.21414116232190494,-0.0010568952446003597,-0.0004961509508739269,0.0010582585106049057
56,0.2412142045533448,-9.382679594852272,-0.23915805047229427,-0.0007704154502316619,-0.0010553286807660337,0.0007611357246839456
57,0.15900504752906316,-9.393631936655398,-0.2639688888760271,-9.648114652151488e-06,-0.0009814595680002244,-4.808219856300202e-06
58,0.189310634545811,-9.351746575821307,-0.19013363570755965,-1.2809524151034028e-06,-0.00013030556220389433,-6.383735122698224e-07
59,0.1890614365513388,-9.363476855337336,-0.163943868181274,-1.171947393421182e-05,-0.0007199662912009598,0.0007193068692663549
60,0.23152711988911628,-9.36452337208633,-0.16675360999464028,-0.0005080692775492452,-0.0005501421887620464,0.0005517787912831965
61,0.25400646249670844,-9.373463301402392,-0.21184810578461544,-0.0010460667182147737,-0.00028498274582098085,-0.0003036562327593005
62,0.19243348851796255,-9.413824068012467,-0.2978863113921662,-0.0010462499718336094,-0.0008071716165719165,-0.0010770287388883444
63,0.2698810997829848,-9.367034681363716,-0.26508736015600287,-0.0010211406286321587,0.001747089606456306,-0.001064515284507567
64,0.2943696144994157,-9.364394428267175,-0.22237087766176222,-0.0017330697363639159,0.001423951552272072,-0.0010702977000084247
65,0.2980844986932856,-9.379914564893868,-0.21631551578143038,-0.002078801695158702,0.0005759077770381589,-0.001076451370610158
66,0.28022098858177447,-9.391851958184894,-0.23019497581693138,-0.0015059349517540582,1.4431385129786048e-05,-0.0007797309255912254
67,0.23685027379182821,-9.384662766298018,-0.23129660613620476,-5.297728650993065e-07,1.0086634143836597e-07,8.265018574770556e-05
68,0.20173427613750133,-9.382742775750941,-0.21928821137117457,-6.000577920061468e-06,1.1424827151141158e-06,0.0009361537978992087
69,0.26397688781328515,-9.391052893575633,-0.3110184142877321,4.879792220008736e-06,0.0007211995141357684,0.0003476500262917082
70,0.2666016698681678,-9.377741625083734,-0.24312189334564277,-0.0004917698784920705,0.0010696493899439719,0.0005116652944851511
71,0.2519214781502771,-9.351079112408462,-0.14453692681265184,-0.0010395442258461225,0.0010755247058854764,0.0007699598157073506
72,0.2848920275322565,-9.340975544587748,-0.21121199781852265,-0.0011164143791070323,0.0009930198366247796,-1.8077189105759437e-06
73,0.14971948861626933,-9.44135385202419,-0.24129666902232141,-0.001961609398931081,0.00015037998491571332,-1.0894539714853251e-05
74,0.22391905707936416,-9.403075653124361,-0.20761064775784455,-0.0020864726983881926,2.0393547728284833e-05,-0.0007350214881796502
75,0.2372483074159912,-9.37871140085208,-0.1720509662443771,-0.0015931264031591751,-0.0004924338779879932,-0.0005693788726453354
76,0.17434466685846667,-9.38104456506983,-0.19485478775306345,-0.0007627087558754337,-0.0007611170904814039,-8.203455354350722e-06
77,0.1096803042462102,-9.38137758013626,-0.2958715341088428,8.008211055015543e-05,-8.317678382933022e-05,7.184240818585766e-08
78,0.19578665465888526,-9.356972814264397,-0.2155001843327643,0.0009077577891480979,-0.0009428369567017551,8.143579780034005e-07
79,0.16580701523484648,-9.361097154579864,-0.24039072316399743,-0.0010898077895145422,-0.0010529694796114033,-1.1554311848658756e-05
80,0.20007173900165987,-9.368866955692141,-0.22410936307561674,-0.0011015751664332778,-0.0005442970547080418,0.0005001703235277236
81,0.2422474611199945,-9.382906476703578,-0.20521964738387444,-0.0002996166796891561,-0.00029086510045455246,0.0010637391212086123
82,0.19621935938275126,-9.40729811562085,-0.2490197184469161,-0.0010618305001695962,-0.0010521170327599464,0.0009729887363842045
83,0.20102977002033087,-9.399992896058338,-0.2080496866834889,-0.0010563596951146754,-0.0010531586491336665,0.0001194851242326314
84,0.2054328808630495,-9.389802952736593,-0.19121946259871458,-0.00033347049750212884,0.00038083188860530223,-1.3227349698544828e-07
85,0.19340127470345142,-9.368356643497286,-0.19669005798372896,0.0005075931437477247,0.0005503749071898961,-0.0005036256921127782
86,0.2130043030975798,-9.366960522073967,-0.21940286903122447,0.00046741680428758647,-0.00030075778593367255,-0.0007697027913957172
87,0.2981794375596898,-9.410349644320782,-0.244923286861106,-0.001136420947835113,-0.001052495222440312,-1.1828198176528584e-05
88,0.24430283841879813,-9.391407263560511,-0.2064677085802167,-0.001973248805422067,-0.001043981068352969,-1.6745172636775e-05
89,0.22056498348596917,-9.377799313383248,-0.20187172804653758,-0.0020873959795245367,0.00039860798777375487,-1.0438199414227455e-05
90,0.2123309548624523,-9.38112346109618,-0.2800223804195918,-0.00208563856373361,0.0005773820389918529,-9.562376333089772e-06
91,0.22856333817901212,-9.384934359250368,-0.314687341060815,-0.0020911052982903,2.127557365723172e-05,-1.2286769915891252e-05
92,0.2716026777527129,-9.374686979712683,-0.18864115875004386,-0.0020097105981727054,2.0352161207984734e-05,-9.428910229766035e-05
93,0.25380415839367054,-9.41461562666547,-0.23899012120710367,-0.0011674119355308543,1.0796390746961229e-05,-0.0009428757399889072
94,0.1545534671523502,-9.366003677730449,-0.26167679291554574,-0.0017467019088913823,1.6539050202872223e-05,-0.0010771914806749201
95,0.10885171795842122,-9.352411393129586,-0.23774066002254923,-0.0020842667366207,1.997354265158725e-05,-0.0010791749204249
96,0.13034081382461685,-9.357804006535243,-0.2021968462451034,-0.002090959227800787,-0.0002743174955240342,-0.0004889652515603585
97,0.18246519498756453,-9.340118665218606,-0.20323994081911523,-0.002025705626815156,-0.0009601811719980183,0.0008853808825356301
98,0.15071648477954303,-9.380544836854039,-0.2550808125417636,-0.0011695689968812906,-0.00011962455303640642,-0.0008125395209630369
99,0.1690584657490018,-9.372305860930654,-0.19748844432592805,-0.0010428549409194532,1.0212579058433212e-05,-0.00035046664072930497
100,0.23234983873522908,-9.36364157810122,-0.18716236914635653,-0.0005545565282248072,-0.0005015961178799201,0.0005034799363920891
101,0.2672185965403604,-9.37739495456615,-0.21190475800000896,-0.0005893575255643598,-0.0004671541607061546,0.0007653666095636639
102,0.2018301741352928,-9.418014851759576,-0.21626676047600615,-0.0020806462608392,0.0010852266924501,-7.074419797448404e-06
103,0.1277498503165759,-9.414664605549905,-0.2117455153810728,-0.0020806462608392,0.0010852266924501,-7.074419797448404e-06
104,0.08258228309917659,-9.37090925644726,-0.2137281156595725,-0.0013864018573066842,-0.00036305776048855697,-9.971897802804882e-06
105,0.07766460332045812,-9.353195338643182,-0.20306851111041163,-0.0005617900120819687,-0.0015666105991730952,-1.0912252925288159e-05
106,0.11376113726201414,-9.363601483275183,-0.19084550611446643,-0.0003077336012146778,-0.001830732527756848,-1.0685536220547594e-05
107,0.1868212497116367,-9.382596973182782,-0.1999703927460251,-0.0010533779722978558,-0.0008891246752022128,-9.292182228187517e-05
108,0.29986589969475763,-9.383970103658799,-0.27151263292416805,-0.0010311728427687455,0.0008121417200170164,-0.0009380857417453654
109,0.37504072124776,-9.371774794250575,-0.19156946056802018,-0.00032005206759018023,0.0010660813911189677,-0.0010636579759124396
110,0.47720715645871004,-9.366674640052263,-0.20671167536077692,-0.0004929131103495824,0.0005612587152670497,-4.8876486385655274e-05
111,0.6534461955182348,-9.362433383693078,-0.2807213955958401,-0.0010556934249185438,1.265696795773373e-05,0.0016524730285980304
112,0.9446200805464664,-9.353147051077968,-0.30166595010387076,-0.0010698073489100808,1.5344194824472104e-05,0.003854394864118042
113,1.408343666009141,-9.39562498837195,-0.2502274003429601,-0.0011135840631620515,2.3679081900965842e-05,0.010684026585015898
114,1.5850032445699107,-9.37899195840968,-0.2661581384835811,-0.0011758884403095585,3.554155163559405e-05,0.020404170222749304
115,1.8427227651014217,-9.33875958784942,-0.24133243654971864,-0.0012644011439446067,5.239396740590653e-05,0.03421309075909122
116,2.2561766269706274,-9.337319534691552,-0.2988300509132769,-0.0013845416265032945,-0.00022015904709981801,0.05250260230454669
117,2.836176077897522,-9.404951253129376,-0.5456852036715112,-0.0013765514176485726,-0.0008809045684967136,0.0753554806286181
118,3.816056724772489,-9.280069970415155,-0.4780679392472267,0.00011784782223429082,-1.1339137755495346e-05,0.10439581071852681
119,4.278025373204052,-9.332752520095786,-0.4079008287612735,0.0003473553474236,0.0001222073769063,0.1088557797226184
120,4.714303603303414,-9.31337779545394,-0.4664867215903239,0.0005250745942698219,0.0006869057715703861,0.15977755729737925
121,5.354089583017436,-9.246419757356705,-0.5882551500528022,0.0010036440997437787,0.0007131223301122119,0.21558081225528275
122,6.37335089599563,-9.236503299335991,-0.6728703395380715,0.001903809408713596,-0.0007374340317970557,0.2284992090301838
123,8.167634063812827,-9.354864449014922,-0.8382511250340579,0.0035619579665200677,0.00025176833425589903,0.3625518469800024
124,8.598391797917696,-9.072998137650295,-0.6117268718203817,0.00452429180314596,0.00039652907866939214,0.3831490267334917
125,8.402127631793293,-8.909796247067115,-0.11524325062641605,0.006026653636619779,-6.759690308576994e-05,0.4340702173708064
126,6.996455927607805,-8.927722819724405,0.1534509546141344,0.007666726427991747,0.0006443850731512838,0.5253715768533667
127,3.7535753844867368,-9.045967532396677,-0.20211395542615718,0.008708228582613055,0.003666104524285965,0.6282530082673901
128,0.13903283140985973,-9.190890860327864,0.0010083106606392118,0.009680336950297061,0.0020762113080370855,0.7349688921054672
129,-2.456069759976816,-8.943655653624239,-0.2712096586923001,0.008592957117034655,-0.0009477941355801079,0.8293818149929655
130,-4.002925396924605,-8.841390393964684,-0.5628689433895389,0.007426396402939267,-0.0012361355382601662,0.8803393470948963
131,-5.258527973677887,-8.999133535419091,-0.6236389280561699,0.006271139666126431,0.00019166038592538525,0.8871287405969751
132,-6.75109200317672,-9.321601437782727,-0.3161958260117855,0.0052564811727294335,0.00102333016578382,0.8612488459371108
133,-5.277182183822507,-9.176381735808615,0.15860708365124546,0.008894358494602416,0.0017862737722240598,0.8168792622459837
134,-2.602312267503274,-9.118393514869805,0.20074052474682957,0.011426497122890254,0.0010612368728513464,0.72191967826918
135,-1.5324862530996173,-9.250645309725742,0.16870846435651599,0.012588020361531449,0.0011259662514410923,0.6462789282200186
136,-0.7999967195635564,-9.429990302199393,-0.03117584559192846,0.011508863230018356,0.0022188229442693178,0.5905222763870259
137,1.548833992546231,-9.442686523773942,-0.5003281892784164,0.00766814361564108,0.0034922458833084383,0.5394002032959195
138,3.1742717469841826,-9.148885935419473,-0.4695930644781938,0.003576952779104096,0.0009586436705630485,0.5214347390931866
139,2.4536749011023176,-9.158016409451513,-0.3165764081486502,-0.0006878791162305213,0.0020675646771095724,0.5359985937845775
140,1.3106016718247386,-9.195476013910353,-0.5349448372912793,-0.0020231972014774615,0.002287430956370135,0.5590266873850087
141,0.5346430455577513,-9.02075277926428,-0.8025663826306935,4.845058723070483e-05,0.0014513861145678646,0.590887491736726
142,0.5167604001284041,-8.579909003971407,-0.6786207152369055,0.004929938170764161,0.0006844741234110051,0.635996794882827
143,1.153177727480187,-9.081762143961775,-0.7301385309387481,0.011340767956459023,0.0006695449404473657,0.6795760069887572
144,-0.15333183264715922,-8.984546018353864,-0.15545194746211077,0.012835264396206138,0.0021418090338122847,0.7195205612228641
145,-2.3991448473719674,-8.967844968663975,0.46450738163688743,0.013071446042880956,0.0028466677158092957,0.7364008327675597
146,-3.90071381639815,-9.059819981353387,0.6492334686396917,0.011883312253524757,0.0016827482238577322,0.7392777418302899
147,-3.1453220992824007,-9.097966828587477,0.09643083229716096,0.008405645667243758,-0.001274679597690637,0.7428053207144912
148,-1.43474007655909,-8.977876524571201,-0.4867295959685334,0.004304157341476997,-0.0003937315108519619,0.7316869768605699
149,-1.63727761171149,-8.73322247091392,-0.6624782071482127,0.003130334231967756,0.0004392283647297257,0.705414643134366
150,-2.0671403243907753,-8.999501267826032,-0.6463945844516332,0.0034675197605101033,0.0007483757587604156,0.6784267423790165
151,-2.0164406434653404,-9.338098592508436,-0.5607308577275384,0.0047336697959387535,0.00041499906675606133,0.6560711486990627
152,-1.1736126387759314,-9.148357263828377,-0.4380362435676767,0.006661643541375395,-0.0002283942081321322,0.6404328978446229
153,0.03139522593776198,-9.12552352178517,0.213808776248823,0.010089004454225748,0.0014273778394870854,0.6302156426043235
154,-0.4433983565500855,-9.198715784678804,0.1585645469785634,0.010635139439095935,0.0031223206335046507,0.6279284756815454
155,-1.2540437460332268,-9.186090299272912,0.08228724890427427,0.009622303513470255,0.003316213262672522,0.6306325346356575
156,-1.5789653850593446,-9.02627723809547,-0.011095700897480146,0.007894240468919683,0.002195615580155142,0.6375124722015498
157,-0.9720925070814515,-8.769212833730943,-0.2392773863277301,0.0062978499518261104,0.00068487112042198,0.6483968791572642
158,-0.5978425594777576,-8.969472385292065,-0.1367462934403573,0.006188408166196064,0.0007057083381132046,0.6654709584595087
159,-1.6167802393656627,-8.935226473816785,-0.4938219329524231,0.00469596038509989,0.0007347764191833787,0.6774810104934803
160,-2.743181846129385,-8.985590783896846,-0.40779803290296024,0.004481827558521783,0.0012518982462442123,0.6840009067622488
161,-3.0198719735527764,-9.082698148383582,-0.10654738770414124,0.005890757640043268,0.0015011685525617726,0.6853571165831607
162,-1.9736787527206445,-9.116338945067687,-0.02477323688369324,0.008328734457160477,0.0007038475123993127,0.6827243109537797
163,-1.8288853925295014,-9.254955983855343,0.510621740929953,0.010023493512708453,0.0006826597476977351,0.679319324429705
164,-2.5143481873252975,-8.728691010924202,-0.08453141543059553,0.01031924874942998,0.0013942338620587967,0.6744646456618204
165,-2.871764166098136,-8.820056474010556,-0.4410621747014673,0.008864828256412733,0.0012378327265362573,0.6678062481024446
166,-2.72103819226306,-9.012310720529921,-0.28912804467061876,0.0066966805412278715,0.0012833935776128571,0.6598146099866119
167,-2.212647819125133,-8.53269826288248,0.1254428987608933,0.005250073066334622,0.0026648794834430193,0.6516849760750802
168,-1.6007635860250813,-8.838889849341129,-0.6762134790926839,0.005260690047551127,0.0009565632062990825,0.6474083129944433
169,-2.576057842744975,-8.863389562406745,-0.49216623753283106,0.00524816071667087,-0.000747346118407796,0.646742720091617
170,-3.0735880359612837,-8.917550249598058,-0.3078618521922689,0.006222132935594968,-0.001442429566031102,0.6492891548056801
171,-2.695947344842583,-8.799770226818687,-0.5082008157246841,0.007299306127704618,-0.0011550205129130372,0.652384109375928
172,-1.7218554996310826,-8.322876847957719,-1.05753622470851,0.007221709010509751,-0.00021938578609789042,0.6534062892274277
173,-1.459207078819268,-8.501317927837018,-0.20807027241057313,0.006385988078984004,0.0014945532416917593,0.6559702273946564
174,-2.931383847124159,-8.634975883429984,0.014757926176145169,0.006966992355563511,0.002472958626260001,0.6570955429570241
175,-3.5414279268371773,-8.767984786377962,-0.0757503763880007,0.007276409869752147,0.0018028916907762468,0.660491843344384
176,-2.973757097086733,-8.807443278086422,-0.18838704882651378,0.0072429854980903385,0.00039825078173889405,0.6635395657943429
177,-1.839977884480205,-8.703786129883538,-0.11158701999525966,0.007081992237400891,-0.00020731728157313964,0.6626821494906345
178,-2.1252352352886765,-9.00872245523893,-0.2618785651831016,0.005431326668507931,0.0015109694348094227,0.6618271562347969
179,-3.3997391926750353,-8.98870840090578,-0.6010799546695488,0.005204794766714895,0.001770407222127673,0.6573620204788243
180,-3.167958496836631,-8.605082370698785,-0.509034408169194,0.005715023872469532,0.0012549619377426905,0.6547839204444328
181,-2.2392787356289494,-8.35668493423838,-0.18078632865489924,0.0062643843438962505,0.0012814769485625182,0.6545242722512608
182,-2.21631704355483,-8.697962247372002,-0.024539129287492453,0.006354724749958297,0.002657735431802424,0.6550574903922983
183,-2.7704763490040016,-8.508063542595584,-0.07195583759806048,0.007190442961899839,0.000942996220329728,0.6524927468978783
184,-3.2192458503972774,-8.542077893770761,0.27215126401643036,0.005915862737096064,0.0014122506841092203,0.6513707460730144
185,-2.6452702987777323,-8.58217396127235,0.1692155472802993,0.004743977626471856,0.0017683611272293065,0.651529208717081
186,-2.2518989883756997,-8.51656075699088,-0.043587079309803524,0.00447890295933479,0.0017723853737378844,0.6526766810175586
187,-3.416840886383035,-8.346870219780442,0.19037774354684714,0.005302470563886541,0.0016027706582930857,0.6543885261450507
188,-3.9180856748188306,-8.661221677943644,0.3272014964168151,0.006111622486889463,-0.00010596827463976621,0.656092110651126
189,-4.374572456263563,-8.549805072776483,0.5314412029375588,0.007646059362316925,-0.00038286997915808126,0.6570856381811723
190,-3.9340759985440608,-8.258599664126116,0.11266591421843489,0.007854465322380252,0.0016423600955542685,0.6554071938843895
191,-3.297616220340936,-8.236248301323648,-0.3739302719082095,0.0070488502241048915,0.003286850808484548,0.6531764557131432
192,-3.4340912851842464,-8.820690304527895,-0.22901564560411,0.006197070053619174,0.0017555499270832439,0.653245785478006
193,-3.601012534308259,-9.094869035395668,-0.6059568322560198,0.00535477139097722,0.0017651056975442273,0.6540943721156975
194,-3.5400857406765134,-8.509623124208082,-0.6747795297376291,0.0066303125859385,0.0003114652172885641,0.6535045661087127
195,-2.9604243846321987,-8.331717952804233,-0.34637192625496527,0.006328234808195143,0.0006379995842972373,0.6511247360154111
196,-2.9378061283514905,-8.425014308367983,-0.15431600571944115,0.005265781732439978,0.002053947504308169,0.6483006621860996
197,-4.43666016497653,-8.34329981720512,-0.5720863115081815,0.005523813244814525,0.0027381642547181432,0.6465976397722135
198,-4.567984375382436,-8.599440706642014,-0.17914661663803905,0.008035298512359923,0.0018586003442522972,0.6449003990726632
199,-3.821728741555626,-8.460500894832334,-0.09499072774262132,0.00839922284249427,0.000284943614307997,0.6460760071632485
200,-4.46731546436014,-8.543323631137905,0.09067105212715793,0.008407783845895273,0.0006099632100742006,0.645242024938268
201,-7.141348650074087,-8.6190710653386,0.12468545041548888,0.00785512647518656,0.0017268085059236327,0.6429781511675632
202,-11.48868231700591,-8.298158739472742,-0.24844109512841062,0.006361409618080323,0.0017387121212600481,0.640117830226697
203,-14.206564327238057,-7.920089271770585,0.15692849077681822,0.006448968183490435,0.0017220413690635468,0.6264577653730606
204,-15.069696653248005,-8.146164184615708,0.10945479940742883,0.0074817990226706405,0.0009316271229608353,0.5745321751515737
205,-14.580636863112542,-8.376974208507516,0.07892806230023927,0.00775538271615058,0.004570911935636891,0.5125915840593369
206,-13.736466592165659,-8.427591278798488,0.24242257342178158,0.0066991564758606915,0.008929598743535359,0.4184705119748399
207,-13.298524556900682,-8.330506707709805,0.5286596229937282,0.0044244072129013285,0.008202861037193879,0.2630928615017568
208,-10.74515859047374,-8.780257837160436,-0.28686280805599457,0.0031100355338663467,0.0020301212633523583,0.0675477097432779
209,-9.750700429942576,-8.948403561258342,0.038105350755988726,0.0007586952735353882,0.0009768832604055465,-0.06877422189807222
210,-8.93981893479129,-8.682343299352038,0.3395583741025948,-0.00284507755034715,0.0013890468031866328,-0.1831054801729063
211,-8.3178817003793,-8.2224322873862,0.33241135204420347,-0.00611534724092799,0.0012844839816144895,-0.2753824996959913
212,-8.266252156686718,-7.973828970021269,0.01712318568127011,-0.007308357079657665,-0.00031838334867642556,-0.34003668099585727
213,-8.99983977891761,-8.54196537889149,-0.5020222255075634,-0.007745718567015461,-0.00038592577269473487,-0.40236258848239204
214,-10.647085903163935,-8.421727540624511,-0.36740887254341137,-0.006114095311619554,-0.0011860319939394754,-0.45746052089727196
215,-10.030757007821578,-8.323293211884135,-0.029170235964385213,-0.006584191016153265,-0.0015887594545621227,-0.5122681308371275
216,-7.965751232078635,-8.078128134202842,0.1299835082038195,-0.008128845829868055,-0.0010531458866891406,-0.5716037628183427
217,-6.2483697436600565,-7.546094779060922,-0.10084753474769612,-0.008357807097513978,0.00041100095936713225,-0.6390059494754773
218,-4.216452290346429,-8.720557815847561,0.21135523637768827,-0.007040210126094501,0.00031080907836254665,-0.7141285888671246
219,-2.431039981809836,-8.689586570661238,0.256879708784842,-0.007294150514270906,-0.0011871769467146805,-0.7668867655006135
220,-0.3339296665159984,-8.228645907177237,0.21082914223321758,-0.00939068336823899,0.0001343839039632741,-0.8013180449656145
221,1.1630151824158994,-8.155917360135916,-0.015875539543961162,-0.011769413276574128,0.0017837346316820224,-0.8142804574521612
222,0.8375637779672354,-8.99718316297796,-0.4939502009580713,-0.012552876695305892,0.00026782889790057557,-0.7999234635114956
223,-1.6388356182587502,-8.977675013295642,-0.6353996032252177,-0.012110829419645173,0.00033433769255651776,-0.7384510642496588
224,-1.782903572862193,-8.501965612628961,-0.17198887876080166,-0.008822415947002392,-0.002516263319222612,-0.6841951707504067
225,-2.3341251665649985,-8.375532640835955,0.3442311262289595,-0.006438894356155826,-0.0028494299853772304,-0.6373523120320891
226,-3.58624298050373,-8.735733428718161,0.43901169959080194,-0.005279913638332671,-0.001114703841025402,-0.5996651481172419
227,-4.960427274595679,-9.295772663422301,-0.1063191384585091,-0.004748711897475666,0.00028564324678228366,-0.5749073229636921
228,-5.067218390749947,-8.2897069161402,0.14267710475819703,-0.0055522415434777605,-0.0014175351011847261,-0.5826037103513434
229,-4.270243823957062,-8.273610038796917,0.08910586479149951,-0.005634449299948172,-0.0002465544288342331,-0.5881168494269444
230,-3.7286998002738825,-8.443041540337932,0.1031353087098288,-0.006016709123425381,-8.157930129756467e-05,-0.6059513606401226
231,-3.8720102805442353,-8.648245680927513,0.09657749399776969,-0.006977967886915881,-0.0006594978233399568,-0.6324257256859535
232,-4.539285277978979,-8.852450875784555,-0.1111661690726267,-0.00848129106696034,-0.0007560686859129314,-0.6589010488811237
233,-3.006688448846303,-8.46234194560519,-0.3577138322331525,-0.009992887738759936,-0.001622501280521769,-0.6853808727471207
234,-1.4964609866853005,-8.594104894270737,-0.05033885193410856,-0.011508182716235937,-0.0010461306123329495,-0.7089657688183203
235,-1.2085959465302034,-8.48970678357792,-0.25269253316476986,-0.011099466185016341,0.0002946151005300382,-0.7208231945979349
236,-1.9854707248328867,-8.44649230863498,-0.36356665882069883,-0.010002750424782055,0.0008103904907415711,-0.7203636322448793
237,-2.990721522680108,-8.901341258765619,0.3330235465447429,-0.010001092952177191,-0.0008003431704638331,-0.7106541844463191
238,-1.9026066364597327,-8.934089132840079,-0.4123114145382024,-0.009254714880276443,-0.0016443831725681678,-0.6978476774885604
239,-0.8632953056872561,-8.583321616799942,-0.406561471727146,-0.008483153148785906,-0.0003304719145961791,-0.685752193093458
240,-1.5993263264379856,-8.564368983694447,-0.2499923614761884,-0.007715222805103096,0.000872201302890401,-0.6732809550662102
241,-3.124255684657684,-8.890647234547991,-0.08572286154916156,-0.007251356822961207,0.0005572458888187066,-0.6607686728669442
242,-3.6660693517418537,-9.261574813458138,-0.0023032312585802156,-0.007425230834220504,-0.001738884823753262,-0.6496435715715002
243,-2.2758606774815164,-8.75961919360492,-0.6586592603717819,-0.00828316203218146,-0.0017262112131390284,-0.6462336680729656
244,-1.8035216032851802,-8.57935531204966,0.002763527598799026,-0.008399465965625325,-0.0010064392478879038,-0.6471461257968542
245,-2.2949607097898106,-8.860800918251588,-0.012619827551017315,-0.007853052538777432,-0.0001680163934514252,-0.6534210518252015
246,-2.9401533433069784,-9.094272671320022,-0.4371185267591225,-0.007252438169337551,7.994841009378612e-05,-0.6613332577177244
247,-2.702068328827324,-8.742238839129763,-0.45844397094793043,-0.007308510823093315,-0.0008579046666379205,-0.6664608422518619
248,-1.045362905244905,-8.620729778676765,-0.5126124674618578,-0.008128465877656844,-0.002558756393079718,-0.6715959213065646
249,-1.3056402764726167,-8.936887022514126,-0.4713950050721071,-0.008236473560609353,-0.001382887018181354,-0.6731051118729405
250,-1.8421004484041998,-8.802126348657762,-0.6941378211696081,-0.007716705962614019,-0.0007017075931823116,-0.6754775398183842
251,-1.7843840705446248,-8.640762296975202,-0.830254352300525,-0.007733514049134384,-0.0009984341734105057,-0.6780094259514438
252,-0.8035861738583292,-9.059774752284364,-0.4749192471886326,-0.009249019514823178,-0.0015099746738137508,-0.6783860875293978
253,-0.8411073768314501,-8.97315909888732,-0.4547081152710224,-0.009251269333802669,0.001049495609126751,-0.6741052546024164
254,-1.7219955682827512,-8.96948948297058,-0.48243047630715996,-0.00787543951940533,-4.290692294869707e-06,-0.6698330701730408
255,-2.126889494147078,-8.88285414857613,-0.6076541361464602,-0.007738864235472787,-0.0011962053409668417,-0.6650611271191518
256,-1.3736076788719473,-8.768777696819397,-0.5069653238027068,-0.0083131856811381,-0.0017437873524332,-0.6617138597454713
257,0.44920148757224304,-8.760669876868434,0.03897858904421478,-0.008232683734652215,-0.001500882818053963,-0.6614681098663715
258,-0.7086643528931699,-9.051676072138925,-0.3399583600157694,-0.0073879491026867476,0.0010479980650631078,-0.6588893718017795
259,-1.9942083786521336,-9.144046131892294,-0.3712957930963364,-0.008696234732243931,0.0007400964046085554,-0.6556157396435871
260,-2.021117426502795,-9.197912543729643,-0.14137842212322327,-0.008409590711885167,-0.0006177489596323633,-0.6527137774202807
261,-1.1559804750163194,-9.08223779497352,0.082998967808713,-0.00703931221317085,-0.0014515359567230483,-0.6519170361670534
262,-0.4653188556830451,-8.73428728491787,0.05737412926919047,-0.006258124455183057,-0.0006112036644166611,-0.6544697341490299
263,-1.7997267665476304,-9.207480602212911,0.17713159184005156,-0.006233339740874938,0.00023682451421516912,-0.6570268765509831
264,-2.0635596242163876,-9.049935138128138,-0.08868771984264316,-0.007628958633214456,0.00037979700971174966,-0.6595951704425229
265,-1.1624327541046253,-8.730674233213971,-0.13404648621231496,-0.008315586351470776,-0.0006266199160440565,-0.6596244339994611
266,-0.4438866418194599,-8.827286293478013,-0.04668057151840907,-0.008039305503912388,-0.0011551327535398613,-0.6585076185449507
267,-1.3010603694046696,-9.634249197864598,-0.12487278158134213,-0.007189960763597145,0.00029573311196790414,-0.6583329442404547
268,-1.9658591195180906,-9.129497339443795,-0.6013252025359406,-0.0063732318320153265,-0.0005618428501135309,-0.6566243930887395
269,-0.5896288345846443,-9.204095760449999,-0.5839256961586187,-0.006949088323064819,-0.002130401003666785,-0.6592573539302247
270,0.1920834027573082,-9.231121791196188,-0.6297401765026719,-0.006281316744444442,-0.0013066680858675208,-0.6596157420548123
271,-0.2651121203958952,-9.195076648837048,-0.4781484667247081,-0.005185065713107082,0.000652355176494564,-0.6567136363551906
272,-1.748896547121622,-9.220546946972199,0.1278661694889084,-0.005370645064945112,0.0011065032273108383,-0.6519148476372808
273,-2.5262589061543923,-9.083391232611703,-0.39074050400171784,-0.007087941735405772,-0.002280607653242335,-0.6502343569654254
274,-1.1899157142995436,-9.115747855220235,-0.2821958346439408,-0.008037308710961501,-0.0028022576664199026,-0.6535857559419608
275,-0.1686269442424867,-9.02384019822724,-0.18902426791056487,-0.008331936503244977,-0.001791647553680071,-0.6588675124183515
276,-0.33233730099841613,-8.97097495270223,-0.1625841274998397,-0.008291111952700448,-0.00038772474369820907,-0.6630686803274063
277,-1.6040013146096612,-9.125868251237552,-0.14919686135021623,-0.008282020248879854,0.00013870522579994074,-0.6636760029299258
278,-0.6500968851777409,-8.645666839538805,-0.6547882362464654,-0.008318071202191305,-0.002413472764480921,-0.6619815091600035
279,0.6001756078317195,-9.140618831671077,0.16040159194625456,-0.007626069607662008,-0.001372182080082913,-0.65809992680017
280,0.3952286792154132,-9.172919019309223,0.11365653147673624,-0.007777919057100749,-0.00017359891870441036,-0.6573828493864
281,-0.7400994975325128,-8.997937605249172,-0.4063020596391248,-0.008319455063636188,9.500288969327479e-05,-0.65791383239038
282,-1.4693008578970939,-9.195431935972561,-0.3555858797452709,-0.00825950933438918,-0.0006737362294043301,-0.6560470000959331
283,-0.07861114257282756,-8.801051527829403,0.10787854948636078,-0.007445354850680087,-0.0006780749529421552,-0.6526272718735703
284,0.8734423210873157,-9.361365221772198,0.29476633668678465,-0.007349155070523345,4.7594979938596474e-05,-0.6463223579404689
285,0.16008951680589328,-9.38823189497098,0.022460789793901648,-0.006875753979033226,0.0003924210194475865,-0.6420280886520953
286,-0.9145421118745126,-9.02838182483881,-0.39011995295458257,-0.006049414563913732,-0.0004972266942168808,-0.6418231292977971
287,-0.5050224418736392,-8.889769861629414,-0.4699955232611099,-0.005683401618097317,-0.002655671313095316,-0.6461005909039503
288,1.07375432937999,-9.13436993533037,0.1296250707071298,-0.00982108451263095,-0.0009152263463723628,-0.6503851378031764
289,0.2805941586986619,-8.948480114531488,0.005052227168257803,-0.009754804825178045,0.0007891131389100641,-0.6488734159855685
290,-0.4692025101650667,-9.371187414594743,0.12979948427921564,-0.008437310327192773,0.00045433659533104825,-0.6468141941284326
291,0.618850234795676,-9.596415222643643,0.18279131257254452,-0.007363155626688274,-0.0009646033660804583,-0.6456966162465957
292,4.654833169453553,-8.731041736963958,-0.3612316472785815,-0.007449155795784451,-0.0018963926131086244,-0.6461072047003834
293,9.424355316613742,-9.509112191166883,-0.5921244155908166,-0.00827458165540298,-0.003596202723176701,-0.6503887801429347
294,10.595290986011745,-9.269470489532198,-0.4654499863047623,-0.007146539464958003,-0.002402331261414068,-0.6243453268372996
295,11.195742522218964,-9.03423796404059,-0.525119326053437,-0.006721335278815961,-0.006745415435212281,-0.591759477441513
296,11.936001130113498,-9.018349511257977,-0.5869618274119648,-0.006038051474874665,-0.00960652162105011,-0.5228356213474711
297,12.517587210041217,-9.156025571951865,-0.3605864891413993,-0.003437595868460938,-0.002375158202500046,-0.383348593009775
298,10.160967038690966,-9.141779498285356,-0.4510737909070974,-0.00030614355465530176,-0.0005114317435395091,-0.2168408005817036
299,6.442696880275811,-9.344927850497601,-0.46371972032701353,-9.064285700087184e-06,-0.0007798445657119934,-0.05252508787458475
300,1.7333374912626014,-9.640374846911932,-0.4496675623247448,-0.00010028725020800472,-0.001972372719104872,0.09005374299168235
301,-2.556257103898457,-9.669563964040977,-0.3501690999139458,0.0005689496678787335,-0.00208011452402762,0.205750180346125
302,-5.110977372901882,-9.189383116821936,-0.14300238932617038,0.0024066114240831023,0.0002286870714525791,0.28914235187471227
303,-7.862051216533325,-9.319524349553731,-0.3033010915501001,0.003239763044642045,-0.0006320156958369038,0.2882887893662882
304,-7.912716339827933,-9.423728903533359,0.07539767733956645,0.0021694042759841693,0.002090990080696304,0.259309613316566
305,-6.733134219073078,-9.31815978720941,0.1703544398712077,0.002059825692009942,0.003371850475154416,0.17285147147858534
306,-4.667923043345326,-9.15227570831742,0.05503310262611447,0.0028461198215366705,0.003222143652920395,0.050181247805400994
307,-1.892169379102902,-9.160272904328924,0.032991131371410104,0.0031559380648815416,0.0033201786749147565,-0.07206968386938184
308,0.6785140656193276,-9.390478608453193,-0.010351138985343249,-0.0011472835786958417,0.005794215957858191,-0.17965535694531062
309,2.3546588426292203,-9.216692515656927,-0.27859539182648274,-0.0036277584331647706,0.002537426265453402,-0.24974882624338887
310,3.649376517701068,-9.195053369412186,-0.3335364395194051,-0.006885639114740342,0.005872485655259256,-0.28296451524958627
311,4.4536083743700035,-9.3214284638548,-0.28668703133346185,-0.00901617340028998,0.00882940064238802,-0.2834031861114962
312,4.521735461742325,-9.427249578619868,-0.365502315336905,-0.007572735260016644,0.002231469322374416,-0.2577842139565194
313,3.775640771853819,-9.447782371891238,-0.34559611306467575,-0.0061900327616495115,0.00568134323179062,-0.20738817022554856
314,2.634521122259647,-9.429963022577608,-0.3408538420634133,-0.0027581223937466898,0.0033582073580700356,-0.1548446314069306
315,1.2626195702944651,-9.450680877250395,-0.24706550690888174,0.0005911991357536131,0.0025093735047350242,-0.10392846239284294
316,-0.09945806604703103,-9.453846777268833,-0.1288794052641891,0.0022225264904379236,0.0036886201544821104,-0.05969508284482827
317,-1.2257678661134248,-9.375785929732071,-0.09628152528812425,0.0011969874769437677,0.004791684561853228,-0.02862177734030547
318,-2.2345109768138696,-9.40382276789066,-0.1887252041574751,0.00029979219608615047,-0.0003054492787414212,-0.02694470547132894
319,-2.617015092518236,-9.386142234887574,-0.11434853830329689,0.0002671438769301488,0.0003240006928443611,-0.04110161221522263
320,-2.4530054481301518,-9.322960571815507,-0.10243268826605478,-0.0005069147155382864,0.004027333244053384,-0.06984225896895714
321,-1.9328589006575492,-9.309809746051094,-0.10475326124199738,-0.0019077563660195515,0.006169742120671202,-0.10890592549951782
322,-1.2421807627017116,-9.40974492553259,-0.016133121067162283,-0.003171284396701145,0.0031298974312506576,-0.15255024272316758
323,-0.05160412990075701,-9.222881717410385,0.04817168601618175,-0.0028783685918260422,0.003926874671049908,-0.19693867906265947
324,0.8813368747511791,-9.410000422122753,0.010007190598812119,-0.002607744369749723,0.009051660295356555,-0.2312098354452853
325,1.3435051605346355,-9.419800877510042,0.005564693333376814,-0.002446320819744576,0.009918596619041825,-0.2550150977698598
326,1.635567230487601,-9.285356325669301,-0.12454429821153318,-0.002662374706256093,0.008819188102716573,-0.2679470615202259
327,2.0915315072045035,-9.208950464457748,-0.49305497950278054,-0.0033909854458122842,0.010366167448622765,-0.26998394883815463
328,1.963093543181128,-9.262107146490292,-0.20682508391240045,-0.0034621213222452807,0.01037971139561114,-0.25888599764465614
329,1.3397263017526537,-9.207093171816046,-0.2400418302611791,-0.004267880466721077,0.01040572834295898,-0.2434650073081299
330,0.6496971852685858,-9.262155648929074,-0.15788673825753616,-0.004711204111901516,0.00941425847746192,-0.2287741521756963
331,0.00044877515769836673,-9.362811795457935,-0.055658726408387885,-0.004231314269726217,0.007720793706944566,-0.21629641003406466
332,-0.5730322568259606,-9.369352241714774,-0.16880636805066773,-0.002629701323269663,0.006415572292101643,-0.2071802755212045
333,-0.8621379361444954,-9.257131922243424,-0.5495516688620037,-0.0009215674078723605,0.008949937764548162,-0.20886574989449036
334,-0.8168369811569132,-9.16932353082617,-0.15878462116832046,-0.0013121532605850363,0.006459305855429814,-0.221404440445811
335,-0.5675873496722861,-9.402570495203493,-0.3255901795841991,-0.0025149877705918653,0.007601623582091483,-0.23998126222633293
336,-0.22405631819577962,-9.6519458224531,-0.5019807038482649,-0.0040203408226255994,0.01008789841142715,-0.2622045673008526
337,0.1322368916150366,-9.521427757419554,0.10390720596310796,-0.005390302095424896,0.009141596825081264,-0.28620260618631554
338,0.661863102812487,-9.388131864976264,-0.30377845855717567,-0.005248341978055824,0.007409074114303648,-0.31096896192613693
339,0.6852308656363306,-9.402004622615067,-0.4387588359245237,-0.005112372236267917,0.010720223449535691,-0.32705710421347967
340,0.826864807532439,-9.186044524269093,-0.09527638342164518,-0.005048126917486366,0.011422563965069243,-0.33598270957848914
341,0.9799818592697443,-9.104215652993844,0.16709549891701334,-0.0044667268693333205,0.01029802088087279,-0.3384593692120888
342,0.8810239347624983,-9.545364566467333,-0.2258870079737165,-0.002964372686176396,0.010446299999804651,-0.3362922722845844
343,0.7833725988196442,-9.362902114479365,-0.1004914436518447,-0.002936691614686186,0.012146523800606508,-0.3379917412280418
344,0.26887031538862527,-9.147460071543922,-0.4754246598214936,-0.0043548104153092035,0.01098646350393866,-0.33899205308639857
345,0.1939411722981867,-9.093998532769906,-0.3576028980534249,-0.005549226145075017,0.010817671965102159,-0.3363000164125188
346,0.09524923574689104,-9.168322560164317,-0.08236202858206625,-0.006114331871216931,0.010503623991885229,-0.33412402304062894
347,-0.6243865452971296,-9.257701966616011,-0.3064997948431643,-0.006107384522321847,0.008346632407660157,-0.33851827355039854
348,-0.44592031064294796,-9.250749604055862,-0.9170729088265113,-0.006003083775947216,0.010033068872695549,-0.35216999479599814
349,0.041715876166983884,-9.364423464943176,-0.7271812685829813,-0.004493684012751013,0.010985612686416964,-0.36581626662510724
350,0.6863553657475097,-9.211971422499301,-0.28906426533425605,-0.0032142410962958685,0.011299605970886348,-0.3814972106972099
351,1.2897055762821263,-9.194041609511372,-0.2672171448276381,-0.0028624670014961023,0.011573326199728269,-0.3953330477130311
352,1.6036081042224615,-9.732162501565336,-1.0399124436045468,-0.0036387405348949796,0.012503757043073372,-0.4033400619376675
353,1.1413276419510605,-9.562150407755004,-0.5838264094274345,-0.004386905318332581,0.014201826480393089,-0.414434581885043
354,1.0426396209537048,-9.36760395374638,0.062017163796488,-0.004445603080491845,0.013734033558210856,-0.4262570016240652
355,0.7921136060234116,-9.120092158800414,-0.13829349378571626,-0.005385785588556498,0.014402190083880436,-0.4336436586446848
356,0.6613292374886337,-8.995280855939182,-0.3714270636760665,-0.00674232676247455,0.014647871681471568,-0.4376249224290353
357,0.9576345617959928,-9.172078585083964,0.32921715416072406,-0.007420278864104998,0.012498623108929224,-0.4410542687521612
358,0.4424395825112161,-9.399309446312078,-0.3812156040196294,-0.006544820468427501,0.014189048728535814,-0.4444558240301132
359,0.5828983222255303,-8.897216840503296,-0.12045173073416757,-0.005670299145180177,0.014438603140853249,-0.4500274035766053
360,0.8340948820461613,-8.92260290815355,-0.020597205495241903,-0.0057817270385274195,0.014938282356827565,-0.4565093622991101
361,0.7662871951893766,-9.322558407151268,-0.2330800669746859,-0.006284294805286425,0.015494207760462411,-0.4627514871922061
362,0.2614388934881694,-9.458831724282733,-0.5027864077939649,-0.006405052330903002,0.015569265238362,-0.4684390076645032
363,1.2624853471684871,-8.469922087467266,0.14875200256147703,-0.007998419990654981,0.016423895618333396,-0.4795426183480317
364,1.8922562243581131,-8.882962515811593,-0.16693256503573117,-0.00747805167644647,0.015817716008525683,-0.49208296232273296
365,1.6584195763158542,-9.470970749205133,-0.3320318152297348,-0.00757658167676262,0.016475964291446474,-0.500319309870539
366,1.1938278107902398,-9.624521723039685,-0.4399427189559349,-0.008351856950288535,0.017590991376518095,-0.5080875916474924
367,1.3648457826845122,-9.119178036081431,-0.8285330197665421,-0.008873709117343587,0.01742133866410202,-0.5204140422989336
368,1.939689853875276,-9.188342489423189,-0.8580463204405941,-0.0071691102408406515,0.01569264181490688,-0.5280956926008433
369,2.2846303089034476,-9.260150379539212,-0.8747817818115049,-0.008986939037595768,0.016158634876023953,-0.5336254294678971
370,2.237804785939374,-9.264143935960433,-0.23991062346592953,-0.008980676384291873,0.016499099076453118,-0.5377313996285848
371,2.0154981852831155,-9.302613662101392,0.2637041736116638,-0.008123950951912543,0.017069272825053456,-0.5443726252699346
372,1.963424595608204,-9.456644450668541,-0.23230921169776153,-0.008867670832887961,0.01852492952703003,-0.5565315628643794
373,2.394918429799042,-9.2382399456442,0.17120799719403212,-0.009673787920159374,0.01767419019001121,-0.5625159756848892
374,1.5429129567810822,-9.200845672734346,-0.08811484618645148,-0.009063158066371327,0.01824955082525444,-0.5670443968257963
375,1.2276914988793215,-9.036811852316603,-0.4333857890359869,-0.008654228701753901,0.018579057076821462,-0.5773981169738831
376,1.855406494209411,-9.068808317288322,-0.9804617034294004,-0.008607424600810877,0.018276237416683133,-0.5851513986379813
377,3.003532704220704,-9.565368630504205,-1.7970399628901348,-0.008790606879465026,0.017831541219761216,-0.5818847851151004
378,1.559447430819481,-8.941959700502178,-1.0596224305948245,-0.010336968982398925,0.021237064584861867,-0.5963906942893467
379,2.0620448547701846,-8.857085231084175,-0.6512956879114862,-0.010527162149760575,0.020316968091502102,-0.6087475552388517
380,1.8017724760226133,-9.32569195029733,-0.5885839910078883,-0.009986029732859555,0.019611336896899843,-0.6166409000580462
381,1.5865919768187235,-9.41138758772346,-0.7457292799723796,-0.009958729596657112,0.019894825568398333,-0.6247011375421346
382,2.7201342242177713,-8.444828437793225,-0.9301869998828746,-0.011469702138436032,0.02058718255358498,-0.6365962257902493
383,1.9750016164567814,-10.047354351721367,-0.9132163619330296,-0.012346947245650107,0.01975078636919377,-0.6314826835019134
384,1.8585609288862028,-9.002772528429992,-1.4301075784882742,-0.012386258375117903,0.021042600024097087,-0.643653401113469
385,2.524434928969221,-9.02193828517239,-0.6750507404712609,-0.012339693608760399,0.020712041351925864,-0.6514120119183904
386,3.0542289766276447,-9.373243584071101,0.5963149379190709,-0.012312537052067515,0.019881542580562322,-0.6569161525432791
387,2.472953406784181,-8.47080974052778,0.9399366089343208,-0.01231467941480175,0.020640128977801184,-0.6676889561489477
388,2.0332818745094583,-8.836711056302384,0.04396728236411537,-0.01310147473632972,0.020639258641427047,-0.6753770038439102
389,1.9436791135136522,-9.184260775124953,-0.9235580482548894,-0.013916374979628894,0.022084135739763443,-0.6765716307359171
390,1.9532524810243213,-8.826677804947604,-0.8410799899275602,-0.013714577615510759,0.022259781144456668,-0.6831649642454083
391,1.8370893522966592,-8.323947596733987,0.0743309000727527,-0.013099261815263248,0.021388506585807578,-0.6948522426533501
392,1.5180431370114946,-8.477652938467804,1.0871984484504449,-0.013184117956090981,0.020844199028609692,-0.707018139175906
393,1.984171927792959,-8.823871842656095,1.078707427054357,-0.014793573402114388,0.02340818730209887,-0.7129915831666455
394,3.83061013197511,-8.486065855218087,-0.2648814347416235,-0.014294797499948136,0.0230722712046573,-0.7218494391040767
395,4.523524602526025,-8.791297795499485,-0.5904432217978546,-0.01494580544334302,0.023238943262160652,-0.7221125491737479
396,3.766544308858832,-9.064923070046131,-0.30213412603881407,-0.015470591034427316,0.023510703945092342,-0.7211331217031839
397,2.3532654703147697,-8.373036566343586,-0.3757248389195716,-0.013994515866502587,0.02263569963793837,-0.728700897026552
398,3.5731856080049598,-8.603310343081315,0.6464847079316027,-0.014849867479684642,0.021795135031965205,-0.7270029720105068
399,3.0242503279878026,-8.030802745427016,0.19706628678482152,-0.015693537700450438,0.021672197242782916,-0.7260220165320579
400,2.5808975833099836,-7.573515341875313,0.0684319915415306,-0.015565881732733688,0.02218291780556663,-0.7205997370401958
401,2.788488976930084,-7.68905247377695,0.08058854921077052,-0.015046957224569037,0.023035684892374574,-0.7146992164982993
402,3.5424173560205827,-8.528440632581614,-0.2607624356354002,-0.015043606783876437,0.02356665984845651,-0.7144055402269427
403,3.0291465409908382,-9.128047026914038,0.8365206008949817,-0.015035886159842022,0.021006147949142285,-0.7195398767660756
404,3.1497258021877554,-8.618179289967316,0.2148858982252252,-0.01577273331087989,0.020620338467291797,-0.7152998527394521
405,3.363925412019307,-8.441623616992377,-0.0390978926123676,-0.015124286944258065,0.021628468177945556,-0.7128653700791826
406,3.365803346914232,-8.390557951371564,0.22066100911060144,-0.01402499301442902,0.023029415302679025,-0.7110896272849391
407,3.090783256605995,-7.952137722423455,0.3860097869725316,-0.014277298329446604,0.023727198628826225,-0.7074918337519842
408,3.75269576033695,-8.22957145763714,-1.1962299727710792,-0.01672344315450773,0.022888027164280657,-0.7186086964901146
409,4.078411786857095,-8.642439947643599,-0.6808479448869367,-0.016421882330399738,0.021314201570185723,-0.7189041526702162
410,3.900508783257153,-8.203322815487617,-0.3612298438802287,-0.01656281974085072,0.021127078945461314,-0.7217632533638716
411,3.1706686026282074,-7.817268937123277,-0.23546279750608384,-0.017378948905075024,0.022571755303200304,-0.7227438031050102
412,2.2816309855849273,-8.558985235974875,0.31580070200429755,-0.018161961399676393,0.024661401663324024,-0.7155655695635607
413,4.454974511643128,-8.183958764980174,1.2064597690959549,-0.018148756977190553,0.022100646375232104,-0.7215542072113381
414,4.117115726316426,-8.547930232202397,0.28837645786985866,-0.018137462444870876,0.021699496827744132,-0.7239290039910118
415,3.5606793445072022,-8.46360537063336,0.041009620881348297,-0.018134549693522774,0.022205494225373955,-0.723605528735804
416,3.528121151806197,-8.024509707222002,-0.08214815888648663,-0.017573040363623133,0.022468334829461586,-0.7210124373104824
417,4.10676583232511,-7.765784341107955,-1.10978088771979,-0.01617127646685921,0.021767989459020247,-0.7165778699232478
418,4.03124238531512,-8.419571119859556,-0.5149779203282561,-0.017038037934499994,0.022634949911563246,-0.7106032903544611
419,4.088885448305277,-8.12876072284012,-0.5982951242137379,-0.017127076588540666,0.022761408686461693,-0.7168760826644828
420,4.253433803648585,-8.1744689920083,-0.7125409545630972,-0.01711805417234854,0.021746180333121055,-0.719840090373709
421,4.42078639503434,-8.479515060154249,-0.8272041214845501,-0.017124098510720182,0.020921553330077423,-0.7201652295685206
422,4.406023075561472,-8.616788436258002,-0.9663885690052216,-0.017028146653218335,0.02169080134594634,-0.7216794261934407
423,3.618077813126028,-8.792145516408343,-0.14746016409081106,-0.016246042256899552,0.02169270628972637,-0.7131370688619381
424,3.812188469516039,-8.069539110421331,1.3370889897233904,-0.016781616317294558,0.022410609640246236,-0.7182888932822804
425,3.9644556503540542,-8.263506391078042,0.5756438639167005,-0.017107965366670135,0.021744328524181275,-0.7214139450182644
426,4.469245849933684,-8.71573761284196,-0.9761268656390493,-0.01769502859587467,0.02033972834038655,-0.721718055560405
427,5.663301766194122,-8.208291108331693,-0.9244893340113217,-0.019292450147902592,0.019824373273582087,-0.7219427953138023
428,4.208633589390047,-7.310353558001612,-0.6660080254295214,-0.02014168955473315,0.022394433934389626,-0.7159590661125892
429,4.074136021702399,-7.682379155286016,-0.2488026013884817,-0.01959206539371159,0.021352895638147358,-0.7135867349977496
430,4.537785015207564,-8.427206590065273,-0.3690613146089205,-0.019742541786981246,0.020153877783723337,-0.7164492213504591
431,4.472420475931232,-8.741643648268154,-0.6216973926409213,-0.020562974276747577,0.019599869126671696,-0.7197908291804653
432,3.213038809467937,-8.09393063685539,-0.4452507126126011,-0.021172288120345502,0.019687586214744576,-0.7184074777326901
433,4.627780577980102,-7.821710284496244,-0.8268238201416449,-0.01948010864957649,0.020519636666630318,-0.7201004857742754
434,5.452289869766794,-7.643189706213851,-1.2731990500859016,-0.018563634926616994,0.019932891556083958,-0.7131603552124974
435,4.963490783407685,-7.73876260586119,-0.21495951256325663,-0.019720351712479725,0.018586162442558805,-0.7142694288466352
436,4.23360806344211,-7.937677102426305,0.966908782596306,-0.02076238532962256,0.018058674012345722,-0.7196130822764698
437,4.706350054488082,-7.8876452292503885,0.31651452026580634,-0.019304313179340782,0.019586292458655823,-0.7204505793059299
438,6.060480648966877,-6.765089068645761,-1.1929643162962875,-0.020134885215120902,0.019593757009358094,-0.7213089952799954
439,5.9500605916438705,-7.118664074847057,-0.7242391326700872,-0.02029691382853128,0.019601076203303317,-0.7164008841523175
440,4.879601310123859,-7.696531066640157,-0.35598838225709134,-0.020801179751655487,0.020113908949507188,-0.7144811063442958
441,3.8009491986788886,-8.12796455468698,-0.36077696887741195,-0.021043212380012354,0.02037925896605928,-0.717096059180724
442,3.7804797015457217,-8.267138912353074,-0.4691478452738936,-0.020337784819018292,0.01959471132693433,-0.7222711500416715
443,5.44440074108451,-7.666158455572564,-0.5845029850464312,-0.021191030228676272,0.0196063513081862,-0.7197147547678345
444,5.986419380550182,-7.7963208896958776,-0.6896108639794338,-0.021300955509928977,0.021043478301521226,-0.7207487398763645
445,5.7957494919167445,-7.861653889374878,-1.050383963644217,-0.02083352952372355,0.021230342272079025,-0.7158626411067852
446,5.375402584904239,-7.653724649302833,-0.5559522826136039,-0.020882878400674914,0.020381791857077516,-0.7135200309381186
447,5.198664687064803,-7.234470785640223,1.5173136584420717,-0.02226622440172709,0.01945330646957816,-0.7234303141651344
448,4.987487660075084,-7.287691269829197,-0.17931685711556325,-0.021457870488872693,0.01774377729606108,-0.7217259367751118
449,5.454533858856978,-6.9604818227516185,-0.37030737452399326,-0.022020674453228518,0.018200918763300863,-0.7229012163366207
450,5.528502300537422,-6.697324869166451,-0.03241269697815044,-0.02188532304662482,0.018550158661456033,-0.7190306254521577
451,5.578105741376021,-6.952769366507341,-0.12149747116269863,-0.02136621041395556,0.018256813605559058,-0.7148667524203928
452,6.152382371027165,-7.923139627467614,-1.140981868298037,-0.02127820549122932,0.017400719453959535,-0.717671097570789
453,5.697798565775947,-7.9312784458623655,-0.11530199970564833,-0.02041690969173744,0.016534799639746738,-0.7227929749392668
454,5.459537705194762,-7.156063664811592,-1.6357074550052773,-0.020978828126272855,0.01784445606789848,-0.7228704721957233
455,5.518383432264272,-7.423305521094328,-1.7387912234344471,-0.021311003758223583,0.018539692736102648,-0.7230290264276711
456,5.383125354002624,-7.877521251069017,-1.0041538262709337,-0.02161455690803896,0.018252347557060754,-0.7209516969297667
457,4.786044906774085,-7.195732898398255,-1.0230100977329197,-0.022496400674230133,0.017575946441696792,-0.7148763604279215
458,6.5567570624669225,-7.083871271355202,0.07424479649957752,-0.023263874230014574,0.018424945105967334,-0.7242680429973365
459,6.476840115382256,-7.2732263964920705,-0.7998513619019911,-0.02340748124573977,0.01568374537868,-0.726470398846805
460,6.570609440354325,-7.161693067849344,-1.7842741511752411,-0.024415036368316406,0.015322733484597811,-0.7247976376281442
461,6.448817194056027,-6.747732499120352,-1.886080848620443,-0.0249555783303869,0.016743823119958284,-0.7199119080612605
462,5.436399266874938,-6.361064809487805,-0.7741447820145426,-0.023551863543154094,0.017588531067494438,-0.7132546308647586
463,6.325363152699649,-7.315903600224578,-1.004673372821046,-0.02435764300813568,0.018444823002467935,-0.7166701853254287
464,4.873555849231755,-7.501755297482401,0.1664489084198521,-0.023778874476011066,0.015693364558643348,-0.7215358040796569
465,4.931077436374023,-7.087314025503757,0.40177894926623997,-0.022944623579012127,0.014804920206151272,-0.7226031458092101
466,6.217558146315611,-6.7645089526145,-0.2326454305852803,-0.022687581866561696,0.015655855417351792,-0.7205966347775519
467,7.089636557921001,-7.085434857847514,-0.9725770962920882,-0.02345652083894105,0.01635880301123752,-0.7177973765777959
468,5.823055437046288,-6.147924114166393,-1.7857641976054166,-0.023497723105320195,0.015513900659770216,-0.7126789219275455
469,5.940660776998488,-6.997235121281124,-0.46080572274400844,-0.024165723099787005,0.014661232061241529,-0.719808092873583
470,6.114750235913753,-7.265831780410874,-0.4914166512798891,-0.024974482478558567,0.015330229593354432,-0.7231198122654118
471,6.043042399393212,-6.979129394457937,-1.0197990049973868,-0.02580829235470171,0.01675073493674959,-0.7213843309962809
472,5.8151787138850795,-6.8108962954023,-0.378205755865479,-0.02650608617384284,0.017294733287042546,-0.7177312669564744
473,6.0874479559720855,-6.510350891582582,-1.3928328836737378,-0.025733450728916057,0.014740058373279937,-0.7117627360248464
474,6.381223607613493,-7.068788588799044,-0.9080709905263962,-0.024850733187177555,0.017200551787723263,-0.7151312321321769
475,7.240312834931918,-7.223301643166652,-0.8000138911565267,-0.023969655086707224,0.01806367790509703,-0.7207508996858998
476,7.604833667845654,-6.784760179116766,-1.1236988308108222,-0.024272556890482376,0.01691871688046269,-0.7240951003586041
477,6.421566098605335,-6.078764247592359,-1.3548199871941018,-0.026496815795213426,0.015400421893415102,-0.7220891355140768
478,6.516812229229411,-6.6209496202692435,-0.9974740182348208,-0.025693608058520515,0.01539816738066824,-0.7169615986555685
479,6.61002955063036,-6.140762465651235,-0.4581610542092587,-0.02557687437047386,0.016838118376305083,-0.7125517836889352
480,6.763681275538975,-6.126933217688999,-0.5418534489763307,-0.02505549779603969,0.01650943924763635,-0.7168953977485129
481,7.04804376844212,-6.480109056006769,-0.910330609785761,-0.02448062026120316,0.015086410288505528,-0.7230380744052942
482,7.356306758372028,-6.553729953225453,-0.979597638330515,-0.024499904079225757,0.014396759845474654,-0.7210943062641066
483,6.245582942155031,-5.4423230828784845,-1.2064966291491688,-0.024518896079169603,0.01525312291118295,-0.7168218169451624
484,6.894563814547977,-6.016190290319662,-0.5232643041503301,-0.0252553968319768,0.015399625438726042,-0.711837089728401
485,7.4364751581702775,-6.376240280276527,-0.49913142183454484,-0.02562690538255363,0.014902977769958147,-0.7077327758198008
486,7.4487064071132085,-6.259554825981134,-0.9137333610601458,-0.02537075232656759,0.013760108530723448,-0.7046150078082377
487,7.140169309931973,-5.928825584495344,-0.9874954706671342,-0.024490754201905957,0.012449685039518411,-0.7011772542633097
488,8.033943606394155,-5.673070285452691,-0.13734023640755633,-0.02287017099542865,0.015001520469800354,-0.6892026598676103
489,8.166987448154671,-5.981179779792466,0.06868657433694192,-0.02128394624722706,0.015401652459736813,-0.6750790123874113
490,7.255906803622397,-6.037924074106338,0.3812610138519808,-0.021684744244972798,0.014915600517232744,-0.662090005998505
491,6.742130977985294,-5.79828914075739,0.5349540999623417,-0.022836175003560517,0.014083851489041505,-0.655132429063099
492,8.03586069561683,-5.5623828545929035,0.053204004831561263,-0.022914633240381788,0.013310887826132272,-0.6562627546228913
493,8.01950529944906,-6.335868773594692,-0.7725253223251173,-0.02383275870466581,0.0133350221509876,-0.6434619071551626
494,7.823017575277593,-5.928800958547663,-0.7244063181357872,-0.024029759500811317,0.012629737616248034,-0.6342602756142255
495,8.271566806293876,-5.652632582566676,-0.8153996258051721,-0.022605648209823782,0.012280146551037907,-0.624702886018347
496,8.553111216109418,-5.630419750875835,-1.016622989213759,-0.020730176788725,0.012564508681740472,-0.6150317683638804
497,7.7108416550401815,-5.622466662824203,-0.9274916292807883,-0.020168611108250648,0.013259579022803059,-0.6076829692037968
498,7.691118971426105,-5.492514991078126,0.19300235685774222,-0.021822484669822607,0.012420235300214468,-0.6119660892709579
499,7.944015918155397,-5.999059079363703,-0.7508997017770511,-0.02213260692907803,0.010860144262726445,-0.6068836738691129
500,7.8570998550975375,-5.8177598516768185,-1.0011145125431298,-0.022684018592493655,0.010688132830914871,-0.5985383057450671
501,7.726521019134241,-5.403181111928817,-0.4634613207154007,-0.023285844654429153,0.01126375212445637,-0.589441405266395
502,7.979486639637246,-5.620274943144889,0.0651613843834108,-0.023346695682990224,0.011275337883237277,-0.5799479994224194
503,7.797172076472979,-6.042929583589136,-0.4157452620200516,-0.023467084215636296,0.011298259311719388,-0.5611661114840292
504,7.4387991177044395,-5.48915593297937,-0.6900350942547616,-0.02346287632575137,0.01129745814864401,-0.5618225869351284
505,7.497787544295365,-5.424479834429676,-0.7632989421273815,-0.022028346656292077,0.010280257534574412,-0.5549443812224623
506,7.799744623623427,-5.565844290255386,-0.8629028985103926,-0.02046594089368236,0.009159173066572084,-0.5433579135892354
507,7.955377689979374,-5.307470002230761,-1.1043318436524352,-0.020426775192500742,0.009165770081274473,-0.5373017167266423
508,7.907754624667336,-5.879458352791894,-0.16134708094518008,-0.019634509065917675,0.009165598801274974,-0.5304671726438306
509,7.624046147078577,-5.381523537455416,-0.24189592499314688,-0.0202891694487536,0.009186801942920672,-0.5178817247842177
510,7.70283816795694,-5.301528495211338,-0.09544189957745815,-0.020196540445597974,0.00869137140685222,-0.5087820756024359
511,7.574814247076385,-5.540540094882822,0.17801994559332815,-0.019686624848644974,0.007840493748333576,-0.5039790084017943
512,6.7321689090370045,-5.535370658460574,0.09499937880377483,-0.019554120052570234,0.007229143759821153,-0.5012606312212112
513,7.972773812468787,-5.088535111491001,-0.4950990054996886,-0.01789187419185516,0.008919640510162655,-0.49697414271954854
514,8.355075008613131,-5.260505311263959,-0.27276015986553737,-0.01698845494294321,0.009909062310220174,-0.48549633497760347
515,8.428838872663555,-5.242713402580645,-0.34941513748382275,-0.016184118122804424,0.009747467108857977,-0.4807893112892747
516,8.177248597798165,-5.037457583807034,-0.5438642189047963,-0.015670721828865104,0.009188073304303782,-0.47607536038009846
517,7.6214239882946675,-4.889508354783628,-0.3614952078040609,-0.015847135756118822,0.009207619922383227,-0.46070882079195724
518,8.261689644156437,-4.897776442118573,-0.06576885416419075,-0.01678167363556769,0.009234879096359633,-0.445347462487774
519,8.231082805942206,-5.184425950861754,0.19034556451900808,-0.019046141959856107,0.008542119629186738,-0.44367416136574056
520,7.872829112709282,-5.08094817222298,-0.06001750000032113,-0.019130891430367704,0.00820621949560487,-0.4354141831907442
521,7.804959980881108,-4.9386557763647305,-0.2921684254639359,-0.01753541169202141,0.007911253659411654,-0.423821957635688
522,8.455809263524669,-5.276681774302276,0.11056066723200182,-0.015983938702770092,0.0072887452096170565,-0.41807806195812014
523,8.09983887634382,-5.366521462939062,-0.02395655024812702,-0.015152264877835154,0.008986706510660619,-0.4146499894305234
524,8.208670772990528,-5.126439719189303,-0.4646235639230552,-0.01436792683323454,0.0078176085069137,-0.4083568041888679
525,8.451622135748977,-5.206051081210712,-0.5840102114066714,-0.015078797421439149,0.0066357354794267555,-0.4010306288519352
526,8.472081518249539,-5.33297102642889,-0.4521284621536974,-0.015952899482807162,0.005510249616695273,-0.3930647331047221
527,8.050566657927034,-5.033091462115932,-0.33306710890950003,-0.015262848494185431,0.004127100379821693,-0.3844501510291262
528,8.082315368135054,-4.568204167976836,-0.1862241913142042,-0.015306300579544064,0.005841668311294677,-0.3750508634518955
529,8.433245439069728,-4.776118561612607,-0.5535320736647193,-0.015368480500211616,0.006121219616454926,-0.3649390189337388
530,8.449571356800279,-4.8866665530831686,-0.7867219394909422,-0.014416479785082219,0.006118688690388601,-0.3587393503906168
531,8.136828538153308,-4.849903005747198,-0.6090249063201808,-0.012786776125148681,0.0055243938704994935,-0.3529744417889582
532,7.78389464434895,-4.850857623653612,-0.019595104899521106,-0.011273149412325448,0.003976170753385839,-0.3426487517065149
533,8.13553566195602,-5.11879527010751,-0.14280416371078117,-0.010508242447923408,0.003981208533298225,-0.33154588815110253
534,8.378489896055898,-5.173011190836964,-0.20391123706015482,-0.011088150374821722,0.005426753392016544,-0.32836075067691545
535,8.24232643956272,-4.801755988609083,-0.42959483167506307,-0.011445683008106736,0.005115960405264101,-0.32615032151808276
536,7.942242493397462,-4.464011950807976,-0.45337321254128005,-0.011778937519519538,0.004006711406532227,-0.3206677491216591
537,7.875217213479546,-4.654611980125141,0.05014150533980695,-0.012684761699100213,0.004187115645732587,-0.3096533415550231
538,8.5429022099756,-4.429210599408229,-0.3319314534730585,-0.013569727430348805,0.005911231360655492,-0.29940546272755336
539,8.451843884532162,-4.547451595499691,-0.40603230937625745,-0.013049978043099913,0.0061834921245345715,-0.2905953800455757
540,8.335032605855774,-4.485098611099923,-0.48003150946876594,-0.011286554662601225,0.005165348870215034,-0.2820521462719605
541,8.369285518174411,-4.493587033930035,-0.5895958675568365,-0.009985830775116713,0.004919807253350969,-0.27292238858734497
542,8.519187555277139,-4.874480559322703,-0.6498695438984979,-0.010477552359985718,0.006936630008224107,-0.2629089513137606
543,8.456171175924847,-4.428163499917423,-0.29892927537238506,-0.007215320004639172,0.003506558627533793,-0.2552228452212341
544,8.613751564299875,-4.7112535837580705,-0.26204574216659193,-0.008843295245437996,0.003713147913564136,-0.24898713097714342
545,8.441604802897677,-4.9010248869514985,-0.345965627340376,-0.009907600366557787,0.0035731827472028563,-0.24251167521385036
546,8.11126882244703,-4.847764815404178,-0.46802541575509515,-0.009662637377428661,0.003017930006927821,-0.23685424839167996
547,8.004235154731722,-4.6555546570638535,-0.5401582453717835,-0.008775306973174616,0.002855075045647368,-0.23295868435646003
548,8.275061273627454,-4.709863758624287,-0.2116057511371078,-0.007173901916985138,0.0011453666051192272,-0.2244197582710792
549,8.423835114282644,-4.672356146212931,-0.21289440062521464,-0.009036708456864991,0.003774192554728542,-0.21875961218402318
550,8.449468967396681,-4.502947895176902,-0.2709589032089943,-0.009098484321670442,0.004158248314110128,-0.2131295715367802
551,8.513563600669467,-4.367486864935526,-0.3636950702841866,-0.008626876632324474,0.003334951075992092,-0.20598339367030868
552,8.766354568452005,-4.453703325761247,-0.5094865283683627,-0.01004589243373866,0.0037369576292060162,-0.19651930791256747
553,8.85246091886467,-4.5947994562784285,-0.46453119773098184,-0.008480530474370501,-0.0005241295959635444,-0.1862858841419167
554,8.6304101994231,-4.430052015914595,-0.49384184600460523,-0.009678861400174876,0.0009843295271133967,-0.17604090594915414
555,8.504650672461738,-4.432136491889532,-0.4265967631262285,-0.008934324828185077,0.002029726195066429,-0.16477408184061848
556,8.462509985902997,-4.561730767450724,-0.37585943814525524,-0.0064917603909627475,0.0017241674517034303,-0.15485761235477924
557,8.376228101528596,-4.619305768607667,-0.47383411644176376,-0.004416814431294688,0.0011746555618896435,-0.14855451349276433
558,8.269436985374341,-4.463622568359973,-0.29634293677314427,-0.00612477005283801,0.00375739782032237,-0.13916088540556365
559,8.379561812371698,-4.517423550386663,-0.45112493214528365,-0.005762830894690313,0.0012945728715014627,-0.13049882512453712
560,8.444286911651634,-4.473559256600757,-0.5366911622314661,-0.005476092863392938,0.00041776709580371505,-0.12348265447261829
561,8.430598833172532,-4.444455677268244,-0.5472146443925813,-0.005786034610039431,0.0015704993663282249,-0.11808836667016856
562,8.389789811845773,-4.594065536227002,-0.5499093093876135,-0.006326849136745154,0.0028099401579466006,-0.1138163876951751
563,8.448476821624237,-4.454804821305341,-0.19444383863438852,-0.003878771265108002,-0.0006157924992054673,-0.10955000982501192
564,8.572032774331758,-4.3655454522046,-0.317528543896865,-0.004221406942832998,0.0002946826022390846,-0.10312038244736829
565,8.60987449848197,-4.33503024778693,-0.6064068253620625,-0.004595362630968724,0.0020104984474247902,-0.0952720036254179
566,8.549034973727759,-4.367185072036468,-0.6966611289274034,-0.00406600429901093,0.0025494728669119117,-0.08760658863155305
567,8.442006712973672,-4.437461396308227,-0.3243140971736705,-0.002526780743938973,0.0009166813671453084,-0.08147065582540196
568,8.473755423181698,-4.3420305149905385,-0.13767365518577165,-0.0017483525846479224,6.639769772306625e-05,-0.07378677797678265
569,8.6640200007923,-4.331396542895206,-0.27610214476747325,-0.0023788565681868087,0.000667755917232985,-0.0639455308731474
570,8.713908576473672,-4.299779309639373,-0.5208663656571423,-0.0037513676085704317,0.0025532751208482626,-0.0547116530573271
571,8.68958320785024,-4.283222510695439,-0.6514057526482893,-0.004041333136318565,0.0027855590702223166,-0.04646736263763884
572,8.72483139314115,-4.343093157937606,-0.4933514914350349,-0.0020073189399065217,-0.0008512205602352425,-0.038551967851184636
573,8.54492203529567,-4.393855694134933,-0.24360502552087218,-0.0037199603497531375,0.0017325553275600088,-0.028304831539284755
574,8.65730027906545,-4.422651301180681,-0.4179428129142338,-0.002633336525192264,0.0014153526995721883,-0.019493760020856933
575,8.616649199599014,-4.426445753029446,-0.5255944134918324,-0.001017198497287549,0.0015673730838987744,-0.010439822099253348
576,8.386222110361972,-4.268608796313241,-0.5585629006804522,0.00031319092801697574,0.0018323673403281568,-0.001331932535087485
577,8.153089152871626,-3.9259198922721334,-0.4604534181190889,0.0007049383272766421,0.00138048167402609,0.006810119061154556
578,8.778442535756977,-4.538277750653026,1.399323913513049,-0.002633900709557741,0.0048251386180784995,0.011075467774278168
579,8.62548073758698,-4.5064045071105,1.5385901029929139,-0.028200253085815547,0.03287653245768234,0.002378014372875806
580,8.267077625674684,-4.415484968595406,0.902964829022456,-0.05762611375661471,0.05089490749744617,0.0008063085489510636
581,8.063824433166792,-4.363308915235178,0.1055066640717564,-0.08855505660884869,0.05887574047271961,0.003151276491398594
582,8.238193490647753,-4.284193247100641,-0.29377646892009024,-0.12235797381181662,0.06703692785774684,0.00011265300313409476
583,8.419545971684505,-4.003675412499599,0.38862019413075327,-0.15233299798612152,0.07670102815257261,-0.005994486204144167
584,9.178931862675665,-4.004504344945145,0.5489046880083723,-0.1780721197101494,0.08991420768746478,-0.00774258924914279
585,8.947520174352404,-4.06159878282584,0.17544730751930418,-0.20153340635433925,0.10377494767971449,-0.008668030782306387
586,8.155890273722243,-4.129614101366537,-0.33654929348238505,-0.22196008526263167,0.11906504463373585,-0.00839849123845356
587,7.853929106508635,-4.199909259561243,-0.51882531538151,-0.23852916483020742,0.13664398045287454,-0.006008367223856002
588,8.68420598255498,-4.135502490496248,-0.5029254902562733,-0.2551338786762076,0.14958569225533067,-0.005190570556158076
589,8.425756930720102,-4.26060822873372,-0.6493296026664725,-0.26202003615772435,0.14664290649011152,-0.005830485445074684
590,8.116469115182618,-4.3733969776703105,-0.8239145625010769,-0.2596902482993383,0.1386420055461941,-0.004685708687884014
591,8.05458150802093,-4.4009103048845235,-0.7775163267066728,-0.25394009033332354,0.1338869003113477,-0.0029913164961756873
592,8.231588890650318,-4.334113343976465,-0.3215202352033119,-0.25100198140027163,0.13803573103592548,-0.003111876342996822
593,8.068997011100148,-4.329857816551828,0.020520169399614797,-0.2442676505245398,0.14137099772137215,-0.004762892146171505
594,8.546396074858789,-4.440767950727469,0.11539473297953119,-0.2431608621091369,0.14476185855720006,-0.00788598816524319
595,8.426754964403205,-4.42173867693238,0.0945522780012451,-0.2451074443422247,0.1461653370275256,-0.011305653037917395
596,8.08661256289181,-4.381901507718956,-0.15051045022384973,-0.2490090316009716,0.14561761920387573,-0.014746346641690274
597,8.256729005448832,-4.498578163928728,-0.6777883936422401,-0.2540230551451738,0.14380394394511734,-0.018120768320562173
598,8.307238317143428,-4.581776430474742,-0.6525197225450212,-0.2590579411770561,0.14044645586560597,-0.02072824726616047
599,8.133214409781877,-4.210325627963634,-0.6923576220676527,-0.2605621985070102,0.1392078122977578,-0.021146482308016593
600,8.321968842791804,-4.075471769702607,-0.6213599677961068,-0.2598891966625627,0.14087093838688558,-0.022146397915959674
601,8.493966758593698,-4.170986912367775,-0.49232413324691626,-0.25675083486978334,0.14336816537686028,-0.023530955307193645
602,8.147038253937554,-4.2766195997371215,-0.39654056352760847,-0.2508091221469864,0.14392191371392032,-0.024188687561580692
603,8.266336437749514,-4.3076807158386945,-0.12699876549604583,-0.24414141451633212,0.14215258200807054,-0.023304215521713717
604,8.479658456711867,-4.224661661796502,-0.2862875547038933,-0.24521175554387215,0.14261513838033457,-0.02101591912773378
605,8.49081544294444,-4.274491919669317,-0.2507981702172383,-0.24775304614223712,0.1409729829716947,-0.018477531192865243
606,8.36088193142281,-4.346671253613184,-0.2146782068404618,-0.2500146514147896,0.13788337398559916,-0.017114022003234218
607,8.236898560888946,-4.2552045943593795,-0.4997909438225505,-0.2518570977984567,0.1359767210217112,-0.01775093240907437
608,7.981946797097257,-4.134682893131926,-0.3861062676714399,-0.2551711521209826,0.140269406144395,-0.01604272609790429
609,8.127387648885938,-4.364880763872705,-0.5725300697182473,-0.2556653319228043,0.1423778546045177,-0.01792369485316391
610,8.161605626339423,-4.464420059076641,-0.5117739581295278,-0.2546477644148889,0.14305813711733917,-0.020981585717319423
611,8.132045531944012,-4.447411016657258,-0.372624301757402,-0.2526652180256176,0.14244940760383423,-0.025557629111501612
612,8.222558478273946,-4.439924405422001,-0.47948042542151337,-0.25005294873459605,0.14079059460035248,-0.03222218269873039
613,8.280764446988654,-4.177998691178293,-0.5459244682464185,-0.2466835295495055,0.13989915726295515,-0.03732852156962413
614,8.25751793627504,-4.202357750117313,-0.31186187345122396,-0.24613168067007635,0.1404730717983857,-0.04028737905296165
615,8.409110363662565,-4.102203435885657,-0.24858416982135867,-0.2476041652363852,0.14083322415532062,-0.04184400781009469
616,8.562022591136916,-3.9776328057647503,-0.3380048478683041,-0.24897413709608107,0.13997247238765265,-0.04212533347351759
617,8.476427925827572,-4.051133846913116,-0.4160846144101033,-0.24847432965218758,0.1378079540321585,-0.04120046597781597
618,8.49037811667655,-4.219544590015753,-0.44849681667151675,-0.25097745047708026,0.139537871764738,-0.03949986075911283
619,8.27821736195358,-4.245025586454233,-0.5053166697936339,-0.249993195065486,0.13764632438963392,-0.037795448597592894
620,8.149980204877169,-4.290952531408763,-0.40014855694161444,-0.24980184797511928,0.1386213185022471,-0.03709340923931127
621,8.147147310321346,-4.390821707977517,-0.3210076935926508,-0.250320689103628,0.14144882700052044,-0.03766749034664701
622,8.208701954867216,-4.48945889022652,-0.4873853795947206,-0.2506029287998886,0.14299562456347975,-0.0394482828950256
623,8.17551012146791,-4.170651876057503,-0.4114958030169348,-0.25393147276481615,0.14302653236967405,-0.042028447791682605
624,8.394756193890053,-4.219848807442685,-0.6106965034929075,-0.2558674386163663,0.14089068389590523,-0.045330483846572636
625,8.360649527344533,-4.2424360174963285,-0.7375033316583964,-0.25506795180843256,0.13781929433494394,-0.04926158183944353
626,8.316919038217318,-4.229973477569704,-0.6169481437739867,-0.25283629217408865,0.13613513193455035,-0.053233319982126985
627,8.614196648664207,-4.260119224509417,-0.2264400881510482,-0.2512814018529855,0.1379763360972308,-0.05615726726246926
628,8.537711119526701,-4.129724556667892,-0.24386351509057047,-0.251258872094563,0.14138383553684641,-0.05443277532559899
629,8.393155717824062,-4.088352600699166,-0.18640411335490065,-0.24776866792983537,0.13973658476769604,-0.05199328285222036
630,8.358652655062583,-4.157252957000832,-0.19578861608530182,-0.2455984537804336,0.13766595282006114,-0.05044059280753452
631,8.373446350604052,-4.280452743519752,-0.2634254627247766,-0.24649297924674493,0.13684737902284538,-0.049596324426935935
632,8.324038044318476,-4.382420768576557,-0.36141194584049824,-0.25013504707854095,0.13734445629293168,-0.04884071592057508
633,8.309125771341977,-4.467129785366251,-0.7090893608426982,-0.24849566074204765,0.13392122153730357,-0.04884757380027446
634,8.280032956284769,-4.250103484687073,-0.5621812970847129,-0.251721094487776,0.13628418563597472,-0.05029302408550597
635,8.32264137448511,-4.197909924583598,-0.3654240258846395,-0.25192086640515704,0.13716867854015832,-0.05199746268670529
636,8.319807699297229,-4.244878086105912,-0.2940864314093532,-0.25053845636807426,0.13775742206017885,-0.05398639173168966
637,8.160785324707318,-4.198711898384278,-0.4012235276414059,-0.25117657534636406,0.14053853495179094,-0.05653810413869244
638,8.292590576176984,-4.242906088216492,-0.44962475981597694,-0.25035759145889663,0.13712148772872573,-0.05911118732580038
639,8.291105136969332,-4.254406132084416,-0.4277600104019885,-0.24953333883905837,0.13370355651639387,-0.06240309818199281
640,8.320198258653424,-4.282222797601806,-0.3651410367455763,-0.24771320331348495,0.13178988080443366,-0.06429963872961972
641,8.421782598812605,-4.314806398391534,-0.3203600300030908,-0.24633414571542472,0.1329635222797345,-0.06484724560889965
642,8.558454858173365,-4.321440758366013,-0.337271139627416,-0.24689258030730726,0.1375284592119978,-0.06506457161584814
643,8.392495691176888,-4.2748390687588635,-0.2643643037170407,-0.24521166707554187,0.13665635985223432,-0.06762022828946375
644,8.349692824733488,-4.18222891495542,-0.5036833068608042,-0.24567227178027,0.13437476092352577,-0.06803826138896926
645,8.361873820125892,-4.287931940904038,-0.4271666340391135,-0.24751550330655964,0.13335285401324898,-0.06704279740806712
646,8.375783270944035,-4.338313058675286,-0.22506350986306883,-0.24745519863210508,0.1330616101296406,-0.0665046841847753
647,8.351655615850666,-4.042839169568557,-0.2941346968796219,-0.24335702198334655,0.13263773047524705,-0.06795423243721423
648,8.336262301810413,-4.0876336352307,-0.5299580626511415,-0.24833768846290322,0.13694718649939192,-0.06710854913483227
649,8.393381877386304,-4.229113828985913,-0.4446382583030095,-0.24912885819505526,0.13619151707473018,-0.06842026882668278
650,8.411970143689942,-4.11984482697133,-0.4563504634365625,-0.2501038499716579,0.13600760348713165,-0.07114558761242099
651,8.449289797909136,-3.9953476114451822,-0.5386818026407447,-0.25062464290331504,0.13511362323623605,-0.07369164380277227
652,8.584412007667517,-4.1738880368607125,-0.5470943452380391,-0.24913786055783665,0.1312324995137431,-0.07463383858482987
653,8.64790942808356,-4.117374060705874,-0.5413219436364097,-0.2491269138108206,0.1312304153029522,-0.0763416472209753
654,8.461067115403745,-4.183204079734558,-0.4499599828481481,-0.2456185007766359,0.12976009291927726,-0.0765976640453177
655,8.458551215629754,-4.096568572246356,-0.38589674107531624,-0.24488380564694012,0.13208336548174077,-0.07607623036503336
656,8.54395581191547,-4.003864529515388,-0.29961290169876187,-0.24539420895920477,0.13428557851912493,-0.07550650395341926
657,8.485803466438167,-4.10669989100229,-0.14324497932500915,-0.24383185389608794,0.13086392678986716,-0.0755138105788885
658,8.366505282626177,-3.960761682112992,-0.28369751594196685,-0.24302928756069134,0.12745000539396562,-0.07552558151769943
659,8.350902716488608,-4.095513245325785,-0.35963776781578727,-0.24567956721779707,0.1290867440736046,-0.07840957669478336
660,8.300924624875053,-4.189584926909832,-0.3702042014187702,-0.24455653721080645,0.12809716584109104,-0.08182296544696727
661,8.243965317901145,-4.182527521567196,-0.37584098635601093,-0.2420830723433393,0.12670062136892687,-0.08522999598770331
662,8.248911304742247,-4.103252364002228,-0.41469185557481286,-0.24279978286438114,0.1289446327612518,-0.08840260441045093
663,8.293167082607976,-4.0102456748841355,-0.17805107964806396,-0.24280267922156323,0.1280924371390818,-0.08926027786894643
664,8.30015903890263,-4.064408582505233,-0.2843984266424149,-0.24488070182756358,0.13012737491436474,-0.09155430897007473
665,8.391857041617095,-4.083006351680695,-0.35561847661336504,-0.24589406774166292,0.1301697959974884,-0.09311044670493375
666,8.496905348405447,-4.069753084099912,-0.41549251552321964,-0.24619598723840747,0.12817809950288175,-0.093683508840539
667,8.484541504477551,-4.056311366217863,-0.5577029755854234,-0.24644206075394223,0.12554842457327914,-0.09377620431676716
668,8.259895327702557,-3.818942133438873,-0.4259438539377783,-0.24061619653497596,0.12208240858452522,-0.09461199547115401
669,8.289197989502101,-3.968269267553579,-0.34724285976890257,-0.2410663712589117,0.12585043011382313,-0.09401265876748238
670,8.346231574027893,-4.177512742391915,-0.3466078488048737,-0.2402472528840719,0.12742238073830475,-0.09415717695639464
671,8.449071303302942,-4.192223492186149,-0.3600905222003433,-0.23773661306460514,0.126251908167229,-0.0961695049355166
672,8.622142511624274,-3.8895046403647964,-0.33133465343263874,-0.23575829784430677,0.12452418860380893,-0.09996434450766875
673,8.35708888549367,-3.9831683595566254,-0.5093769985765944,-0.2391254644908336,0.12285695584194883,-0.09913803323656467
674,8.538348128273618,-3.9756712792800846,-0.6867127214525237,-0.23756652689802799,0.12042141625958905,-0.09900554167556619
675,8.511545847145296,-3.861527786357497,-0.43645342588841285,-0.2370232235342919,0.12088375572121085,-0.10051622318979561
676,8.391919653419537,-3.7892251330487303,-0.06212790695382906,-0.2381245505386475,0.1228668501971054,-0.10073935473460349
677,8.491610393765527,-3.8972540577653487,-0.03003323218483255,-0.23973572287475303,0.12381717037995718,-0.09694654987007226
678,8.697014927990153,-3.842090955520332,-0.1343141233762304,-0.24054955272956846,0.12552774214789142,-0.09779662223610089
679,8.474352287840542,-4.025354085689835,-0.40719605941392745,-0.24137380602909514,0.12436715796648208,-0.10153564286164918
680,8.360633889516448,-4.028525225823704,-0.6957504240708072,-0.23975720447328358,0.1206295145922483,-0.10379186654585955
681,8.356913718010306,-3.963522967426179,-0.8350262125561668,-0.2375828383807514,0.11724451644252745,-0.10464942801973078
682,8.325639086744467,-4.054232079828286,-0.684225788158221,-0.23719280448839916,0.11723947159002092,-0.10557907660437658
683,8.413188560348404,-4.030799735812757,-0.2968674905966766,-0.23300086365736267,0.11719484953488217,-0.10726151740656399
684,8.534350018389542,-4.026601336106368,-0.35855962254008694,-0.2337088076032088,0.12006720991788933,-0.10895954408095318
685,8.555063949642602,-3.9987302769521302,-0.3774207496448984,-0.2329019432888525,0.1194314705475592,-0.11066522999998088
686,8.548026351836576,-3.9698098551649714,-0.2844252238108477,-0.2312598670053207,0.11717088184976768,-0.11266554068303108
687,8.615409286780192,-3.977481119665271,-0.1857926276724136,-0.23139898690562188,0.11716970070923252,-0.11491421316554012
688,8.545177291471537,-4.0086883872182115,-0.4911355801607527,-0.23307654339234668,0.11718775465975821,-0.11407053427721629
689,8.579015955612627,-3.9599113010013998,-0.29469402280653145,-0.2326571042816889,0.11431431713627743,-0.11538463008216182
690,8.636966378766921,-3.979063637739385,-0.3205590894771869,-0.23279846317858355,0.11443497744497105,-0.11709227265510508
691,8.689015827469296,-3.957952505610857,-0.42536013434882747,-0.23275914059690495,0.11611570493263412,-0.11733205954261863
692,8.714644428537206,-3.7682748472372825,-0.2705410266502034,-0.2314841512831914,0.11626174277495466,-0.11499748259127406
693,8.651147008121146,-3.768323811682918,-0.2040157727601254,-0.23397632264148427,0.11799037648042644,-0.11500388068152519
694,8.438232361424024,-3.8041358041859956,-0.25261384412623933,-0.23439180138097776,0.11611380843956912,-0.11501542648653648
695,8.45940227971144,-3.764374510664033,-0.6590645725678144,-0.23440871896510682,0.11406260691811132,-0.11553101370635392
696,8.595517345331933,-3.7949820899184132,-0.9091219931344481,-0.23356268088164428,0.1117669064873196,-0.11726652203966098
697,8.590226833372023,-4.019768807115804,-0.4567621278381004,-0.2310589474596016,0.10903485486854916,-0.12060146415287432
698,8.44206618573459,-3.742425672366149,-0.45567122274986477,-0.22849176998101403,0.11326357197144911,-0.12312637622862342
699,8.458297075583411,-3.811583314237924,-0.2901487352511055,-0.22947946991809015,0.11538006872379436,-0.1235272554412844
700,8.56976776963521,-3.857996460226138,-0.26918481282840645,-0.22768977763360865,0.11353509887880475,-0.12605177471920195
701,8.641629449802087,-3.79592126126582,-0.37301799995590085,-0.2255162310146377,0.11070705028854601,-0.12915466727165434
702,8.58338976462873,-3.6684418919274506,-0.48916098640690836,-0.2272646027896067,0.11048997385980473,-0.12970647084911685
703,8.839303610547997,-3.8059997082506234,-0.6562834147645107,-0.22981504322413657,0.10796436495217973,-0.12717241375348803
704,8.698024489590564,-3.645188479552936,-0.5473763748028414,-0.2273988027049905,0.10753500556886653,-0.12747307841038757
705,8.580231181094799,-3.6280591634134796,-0.4438733640336229,-0.2260305492349335,0.10853022123240526,-0.12629362817498652
706,8.506864425022396,-3.808041114028729,-0.3165056247887807,-0.22574167013455826,0.10935843088691527,-0.1254770511725878
707,8.40056500210336,-4.062556834510721,-0.10130731315388031,-0.22520118997647845,0.10857575891556201,-0.1282730716996192
708,8.413553110824823,-3.92479166117917,-0.22679127024107526,-0.2276772684115931,0.10859503374947221,-0.13341043789450116
709,8.635452245462737,-3.819230571851897,-0.4246335849221143,-0.2301972378598049,0.10790495399270875,-0.13280250630133794
710,8.769156207084981,-3.7152191064559283,-0.4715822634138568,-0.22974873565238096,0.10654516639458689,-0.1331194348414326
711,8.8291523456712,-3.653315534496918,-0.5286633793579881,-0.2278142498143101,0.10511156544933128,-0.13482277623766942
712,8.875936208392794,-3.671456072428837,-0.7578705839535105,-0.22667111775633392,0.10424635831437745,-0.13621512058380902
713,8.518522698020673,-3.6191608099362873,-0.33041608702804576,-0.22250864742790855,0.10335474170996926,-0.13448691075934555
714,8.538021615771056,-3.6993067269114475,-0.48250135690758045,-0.22181194865229784,0.10607777715204922,-0.13563643261401145
715,8.673705830620897,-3.851282850569169,-0.5287761471030792,-0.21984122544973328,0.10543418397284907,-0.1353150064186519
716,8.757318565659233,-3.8488127850566927,-0.39180455946345305,-0.2179493357148273,0.10288171649116644,-0.1353581593649979
717,8.683567752253971,-3.5086050620358407,-0.23953652470590966,-0.2190060982695059,0.10195980062554508,-0.13831476150510863
718,8.641717179707031,-3.3903528698728946,-0.6029149579670041,-0.2223787384406719,0.10029280929637585,-0.13663575194904404
719,8.459796328889235,-3.602383712227708,-0.3743204979384196,-0.22222048690272722,0.09930611042049109,-0.13565015622729448
720,8.436755580177286,-3.7388115510558215,-0.31375158167487494,-0.22038445938741666,0.09893723150537034,-0.13781761661312725
721,8.628207118587994,-3.8104634245169007,-0.3962156990877653,-0.2175687613541687,0.09890466294458444,-0.1411952441579491
722,8.929253053292198,-3.9095847362442067,-0.3638307800595692,-0.21459380237649117,0.09895016026867799,-0.14304078823211744
723,8.661313180779047,-3.700481394169173,-0.14695718040680006,-0.215399589697963,0.09980565299801206,-0.14645634660813583
724,8.754866786292737,-3.490280041989429,-0.4119977929714028,-0.21762478398566276,0.09996007819314012,-0.1491654412897786
725,8.903976700812336,-3.573858067505467,-0.49407831271967917,-0.22013318938083717,0.09897676699606367,-0.15073623188336746
726,8.92911777384242,-3.662560892173235,-0.3961494929452951,-0.2209320333138578,0.09727981003948044,-0.1527691965235043
727,8.727225609785616,-3.4149316688775735,-0.3527618071840293,-0.21833922063236738,0.09554574509796986,-0.15664087336233687
728,8.47900842088648,-3.616644755067701,-0.6784240349990506,-0.21501099857674905,0.09380940443106131,-0.15662955899482314
729,8.340084115754696,-3.5331870689491764,-0.44810454918755693,-0.210962084508452,0.09421547452722513,-0.15588469630517895
730,8.366001340112307,-3.5706602274505905,-0.174603251211768,-0.20973740822648432,0.09656733706613368,-0.15400203986457095
731,8.457551611873317,-3.6706142883363757,-0.034629398433217086,-0.2102934117718083,0.09736448166288393,-0.15202325478644707
732,8.50592029674709,-3.6411798242143383,-0.07523679504302293,-0.21033919582605173,0.09326463667501829,-0.15118984162431695
733,8.77674641564279,-3.440422838398714,-0.16605988647423195,-0.2103697759743082,0.09071141706836362,-0.15034885146654617
734,8.797830067293365,-3.351266189512052,-0.4099338756272131,-0.21319599119731647,0.091054053091062,-0.14807333615366897
735,8.640982075261384,-3.241783468697701,-0.5322223985554513,-0.2126106321223169,0.0893833986418732,-0.14652664867182016
736,8.54285573072774,-3.206657373981817,-0.420225314938174,-0.20927989585980417,0.0882700143329549,-0.14595018835108092
737,8.703011550351619,-3.3772517259935495,-0.10214600380790045,-0.20628698723310232,0.09125608290344435,-0.14599602460119998
738,8.571206298881922,-3.619276733445974,-0.23522863030912425,-0.20712592643111957,0.09041239344835016,-0.14685861042160955
739,8.585110875673664,-3.6502620497050744,-0.08137389510741826,-0.20582162686163435,0.08954108934083672,-0.152737126247857
740,8.50415211942343,-3.602124357397347,-0.3321193322793258,-0.20610170599185723,0.08868608689912635,-0.1580584582289139
741,8.45494122759331,-3.521395795514952,-0.6439985416952737,-0.2080467101364244,0.08726798192952832,-0.162345831312974
742,8.611271763709532,-3.4298494559629793,-0.4798514414217874,-0.21017020605856754,0.08504242019716898,-0.16632561117165037
743,8.580966176692785,-3.334466426262628,-0.4891728665742595,-0.20848349739285377,0.08587551226542833,-0.1671651156010838
744,8.761524948447626,-3.32123992832069,-0.6589920042614084,-0.20751250730548876,0.08600051488784582,-0.16729415915650364
745,8.851556821211009,-3.3955671323404886,-0.5829088775332953,-0.20371601165541459,0.08394555255453265,-0.1693010379351644
746,8.860259410053587,-3.4588735790267497,-0.3464111103750009,-0.19900583820194315,0.08223293339886575,-0.17153068669536212
747,8.886545410251772,-3.412068731454895,-0.20229665193236696,-0.1971698888945004,0.0838393296182085,-0.17127809406445535
748,8.920699325778582,-3.4373542963189045,-0.393213203009343,-0.20219575850635743,0.08474546163328739,-0.1687420914510415
749,9.083146497542687,-3.400292639557745,-0.36272964703535243,-0.2009268628611222,0.08128770209171364,-0.16690868616046395
750,8.910535821084737,-3.282381624718294,-0.33757751661214336,-0.19941234433767466,0.08053899307290258,-0.16721508822332942
751,8.685984555119173,-3.2062798628846036,-0.39371833790862476,-0.19971064386293058,0.08166469390398755,-0.16658769949067453
752,8.827092434352586,-3.294816731047894,-0.527667742647384,-0.20179019142152096,0.08153537270007286,-0.16225801107210347
753,8.835751173500228,-3.301624796870525,-0.4996491272149749,-0.19927691672285466,0.07980257953807467,-0.16566643345484716
754,8.731501090230715,-3.2413605299211685,-0.525234378695739,-0.19536239187227689,0.07877482325146182,-0.16690828587824508
755,8.831214754217951,-3.2082743734078565,-0.45417464671064534,-0.19316498106237373,0.07790082396804301,-0.16724835935365154
756,8.974854017476599,-3.1925100380063203,-0.3082783295964928,-0.19204727368003927,0.07732837170033571,-0.1675357854566701
757,8.911301419260846,-3.167152390627432,-0.20838805702497348,-0.19082550311319108,0.07747021871211039,-0.16845934993829503
758,8.933429308193709,-3.2425842653197234,-0.58661316139142,-0.19414277842179262,0.07920447516822764,-0.17017847294195423
759,8.815540805517177,-3.1674322190224125,-0.6094782926033389,-0.1960533029479839,0.07805505118998635,-0.17621204805007398
760,8.888799473562234,-3.176220984504957,-0.4842836568723038,-0.19672917164652953,0.07635458548145319,-0.18002585584989705
761,8.97805177282259,-3.2358893059461726,-0.40599605976900016,-0.1967282677486737,0.07552131776771692,-0.18144623129363896
762,8.841416322639507,-3.219496937809852,-0.5300432057983733,-0.19618228278043093,0.07613299878492923,-0.1823714177427923
763,9.040086281971568,-2.960870279673493,-0.6905338657638004,-0.19033420557544528,0.07436904839703398,-0.18405236890129406
764,8.86728553609257,-2.989158466444837,-0.5617520960870248,-0.18661747995446837,0.07191253571705253,-0.18359532769646594
765,8.748636940380697,-3.1227371228801046,-0.33183232836322857,-0.18574717229412954,0.07287497479466505,-0.18172230804077863
766,8.743826874204522,-3.1883500677861125,-0.15608596431473365,-0.18686904424569828,0.074552272583245,-0.17915971468371433
767,8.790919507350704,-3.0759320995666473,-0.172985283475442,-0.18819086350138364,0.07278798062202596,-0.1770823954942143
768,8.818338847984904,-3.177645330373788,-0.4481256320424168,-0.18569064689016346,0.07020506806163726,-0.1796406780867617
769,8.902811401659866,-3.2514720044008265,-0.5244654919797725,-0.1874155523901747,0.0691011903412857,-0.17934500871091538
770,8.69094054185489,-3.2051685084981045,-0.46717868334605894,-0.18845668375168068,0.06876590650171213,-0.17748966543818523
771,8.437985282318227,-3.1083506120316735,-0.4003795233322907,-0.18676516207352284,0.06817026207621281,-0.17521257935561585
772,8.508724614496757,-3.0737509654771724,-0.4205671667697747,-0.18192268619237945,0.06665203154531979,-0.1738731600992047
773,8.507762532369242,-3.1024709805596418,-0.21147648946921282,-0.17855294509797887,0.06746602706863641,-0.17641064844095644
774,8.637490529628897,-3.063943740527554,-0.02076416997721009,-0.1794083979204734,0.0683245134452187,-0.17825435954047353
775,8.753802063550374,-3.0369130488183043,-0.20461899117638083,-0.17959394273000567,0.0666578946148617,-0.1814846541168207
776,8.961732407347451,-2.974229186538635,-0.5215973001053159,-0.18017774821734625,0.06470554410674392,-0.18547488126279132
777,9.333537731875253,-2.8215621937717517,-0.5716064387842915,-0.18326567191264417,0.06550689658747438,-0.18874872770257273
778,9.066559941489615,-2.7808796102541438,-0.3396416231169443,-0.1840907680064631,0.06551331854375948,-0.19046144870063195
779,8.81091077697624,-2.8810253435777446,-0.24469596193806703,-0.1807240228041482,0.06404698809454591,-0.1900021260900696
780,8.846848700326415,-2.9177905977582297,-0.29931792752976355,-0.17851238144052917,0.06433395669771136,-0.190647590127304
781,8.993953373763407,-2.893859408514786,-0.3796081164859593,-0.17737155938809743,0.06515241333605779,-0.19234420409427158
782,8.983217511156132,-2.877634585555464,-0.3788046123936329,-0.17562172790130418,0.06412622626690243,-0.1941243806279945
783,9.115022762625795,-2.9081992898026976,-0.7237385009004027,-0.1731215061531779,0.06154331272847012,-0.19668346463238423
784,9.054250640903927,-2.928677736837691,-0.49884682470936015,-0.17135270490563437,0.058972817811340866,-0.19493835682637894
785,8.835111707565874,-2.847801901776,-0.22771838240447484,-0.1721598595071523,0.059448475915518995,-0.19288390373996658
786,8.690697522590408,-2.8457260882720377,-0.1710487668987629,-0.17380432211939667,0.060859260637903236,-0.19205271136424237
787,8.84081188441889,-3.070742951175364,-0.41555057779427446,-0.17342720517038096,0.06000321478587958,-0.19283120165600218
788,8.86149665016048,-2.7149000733998156,-0.3498149438485106,-0.16925458096818172,0.059108722752052645,-0.19281080899557926
789,8.882585970747773,-2.6570787079610994,-0.6185723763267934,-0.16789965894324949,0.0582444010838162,-0.19208847277714006
790,8.985627214848863,-2.6402922327608214,-0.4353452062349454,-0.16806887267925058,0.05739645260359277,-0.19073529438390258
791,9.053971156977743,-2.6365493104682995,-0.1516489004898084,-0.16862323904384363,0.0568407261390687,-0.19107172946708667
792,8.93409690470594,-2.6939575843306636,-0.3618361708460079,-0.16837016683953976,0.05667845586390137,-0.1951841835160108
793,8.69790574240081,-2.9058835111402272,-0.5609743965785812,-0.16586157792917644,0.05494669633126547,-0.1977390976740566
794,8.909939778895945,-2.959044987187651,-0.29038049750433603,-0.16824093027247145,0.05541042233513031,-0.2024656962555622
795,8.890633602674495,-2.9159765920077607,-0.20109115322043436,-0.1666309489495989,0.054732580799810686,-0.20556385614253442
796,8.817671424137329,-2.755758699249814,-0.32008350924331697,-0.1627607285811539,0.053279645099751305,-0.20667354664290463
797,9.03842030083123,-2.5002213521255214,-0.4075166412899883,-0.16124780915453332,0.05256799493425939,-0.206512735413977
798,9.003785344240653,-2.670129862474929,0.23206359977781685,-0.1612503887393123,0.0534212331508469,-0.20480075693148714
799,9.0007026286499,-2.6005552673825365,-0.24883677890151754,-0.16195140667049812,0.05428074761724999,-0.20381130949499898
800,9.207965183971119,-2.599133968230785,-0.5416708152377354,-0.16229889633791877,0.053626332167023796,-0.20397172101657507
801,9.382403215078496,-2.656482935986914,-0.5512403174965008,-0.16260015229752528,0.05163581144764316,-0.20454570617345585
802,9.222609448273428,-2.6563010258295328,-0.559802458325665,-0.16330944829231697,0.04924349683621034,-0.2044063392579603
803,9.09080419680376,-2.4631560292471812,-0.6804164533338071,-0.16249192920707714,0.04838591190907403,-0.20269858490554102
804,9.141426840914892,-2.2919731810876867,-0.5899858200021018,-0.16234994084948307,0.050398351007385156,-0.20098026592154827
805,9.195589896447238,-2.250370259799438,-0.5773305399086186,-0.15841412159528964,0.050400316358790886,-0.19824042669085998
806,9.209608544628907,-2.4386501444346553,-0.4812160425781217,-0.15317604230829795,0.04893695871247533,-0.19625675569719328
807,9.160779317862358,-2.849246904923037,-0.13512954807681815,-0.15097183536283174,0.04829421397182466,-0.19717860739055076
808,8.844735338973337,-2.716603129869319,-0.4799364461348544,-0.15178020226908284,0.05000294491774645,-0.19888218728408003
809,8.874519173542692,-2.631989115466487,-0.4917755134194627,-0.15471005755041053,0.04958434244515705,-0.20204466917496125
810,9.024333977818156,-2.494304114309026,-0.6419957970873879,-0.1560849824382357,0.04673093645359082,-0.20548155373832222
811,9.258500858057838,-2.3604820826628052,-0.7325301884927449,-0.15637550593265476,0.044505047556950034,-0.2080360102041944
812,9.535109616980158,-2.3496119912564724,-0.44370073128681076,-0.15673551779847184,0.04613308390538484,-0.20872878120308846
813,9.33499653445687,-2.661297402534034,-0.21352637941975783,-0.15255162222036311,0.04694274070516351,-0.20784654132247726
814,9.009906082245722,-2.5597143251372065,-0.47827146543988996,-0.14905009574784803,0.04703864602177675,-0.21127902103087182
815,8.961258458186833,-2.5084816921120012,-0.4051597502693228,-0.1461912862610868,0.04600057601491842,-0.2140226558466121
816,9.07556698616374,-2.461265666827556,-0.14175750051888464,-0.14483364186874353,0.04428304831734984,-0.2148573994341207
817,9.10394689318425,-2.2688516427484475,-0.14068287741195803,-0.14576782363510138,0.04274512939706467,-0.21378436104765508
818,9.141949137221124,-2.270282640296582,-0.6621680253338461,-0.14746258269064919,0.04276631716176625,-0.2103793745235807
819,9.162964983605058,-2.347847690500693,-0.7235080677336971,-0.14844240589256175,0.0420612301776042,-0.20984478591012126
820,9.075619527564522,-2.4338754031693792,-0.5177948030660589,-0.1468072102777786,0.04119160614669232,-0.2113524396307757
821,8.954606811227052,-2.3961613512286832,-0.29368305714581733,-0.14488331938807902,0.041190328745793196,-0.21186582372732976
822,8.918073836741888,-2.152267937722786,-0.3136725451742766,-0.14542332578433723,0.04267055977986696,-0.20844620364316155
823,8.968583148436469,-2.1614775682360325,-0.7201418761851185,-0.14294466776444345,0.041798046729369556,-0.2050208159307692
824,9.144057798765157,-2.2471173575192545,-0.33658719308117757,-0.1418356139462877,0.040932835656004675,-0.20734546762229425
825,9.14174401107954,-2.2565318442423843,-0.3021099710741481,-0.1409877624101703,0.03956513901521573,-0.21126664881603383
826,9.124064233135728,-2.1580586411194522,-0.5204274149304826,-0.1407059409514053,0.03872531811370318,-0.2149564416388025
827,9.323055239532977,-2.0003007291275585,-0.5403895591017148,-0.14113906047501065,0.039424180949225854,-0.21759442158916265
828,9.284090913368587,-2.122022611072104,-0.3719525854578162,-0.13778059075652038,0.03853402763893666,-0.22099375715110206
829,9.303764457270699,-2.1970489890992444,-0.5458431941681106,-0.13794374291043632,0.03839847905157909,-0.22225700562640416
830,9.189358626151645,-2.19749634036215,-0.6052251243242688,-0.13730102558743576,0.037888739353273956,-0.22260504545838006
831,9.074457130771087,-2.111523978735594,-0.5312820814577498,-0.1350618433003723,0.0370137101357695,-0.22346856490275174
832,9.158013461693951,-1.9837732728666853,-0.42051272985428506,-0.1319372486061664,0.03612782796071261,-0.22586092616139714
833,9.288375589972377,-2.2304637899326853,-0.11521925860205735,-0.13110410997900368,0.03526632696582713,-0.2267136911733277
834,9.276396086314564,-2.1646403564591137,-0.16653109584623366,-0.13027246900465134,0.03512275161766847,-0.2261279748124344
835,9.246807538759459,-2.070901093401721,-0.19114170964196547,-0.13143011868448023,0.03513784627854187,-0.2232638188251087
836,9.191603091092595,-1.9814931149894806,-0.1901130140524242,-0.13226020997434018,0.03428038323238208,-0.21987635014984053
837,9.094059899630277,-1.8851867535386475,-0.26386558572148777,-0.1297093168891534,0.031934061191101724,-0.21816545966151382
838,9.195559564083194,-2.0574241237957165,-0.3163026059786416,-0.12637530725607787,0.03190211274657722,-0.21643799696516663
839,9.059295449482914,-2.0228029762261093,-0.16804861410688893,-0.12653715011651206,0.033335995452849425,-0.21544229792265696
840,9.181640561488951,-2.143916800148406,-0.4630786581132399,-0.12539394702451798,0.032006911196576504,-0.2181179446605767
841,9.346922987130299,-2.1733627488417984,-0.8021927913001571,-0.12429774475316291,0.03003424102192711,-0.22295282467908506
842,9.181076550009843,-1.8225719896123982,-0.5734812060839058,-0.12563474200105612,0.030740327328688033,-0.22691651704880506
843,8.948733716214717,-2.0637009894191043,-0.2735441635804964,-0.12396555267656795,0.02987111937236579,-0.22776436578347312
844,8.874083755705662,-2.134909501705982,-0.41092057530475856,-0.12299383933272087,0.029008178233893976,-0.22933442873442011
845,9.006894166690373,-1.9360213851705839,-0.5273523701723108,-0.12213361046808566,0.029653130177260092,-0.23204216718827325
846,9.182213278593482,-1.7720122969201562,-0.4787260172815678,-0.12127878214769783,0.029894598196923656,-0.2345786190875069
847,9.204938545313524,-1.97224142959998,-0.2666538190334387,-0.12023397369879242,0.027560613399686438,-0.2352827295190759
848,9.262663472964475,-1.9444511779553033,-0.22227977868137638,-0.11689448812375576,0.02752762236074469,-0.23440957184672262
849,9.383866834197823,-1.881426431507545,-0.3423699788412751,-0.11707378904606344,0.02753126206605315,-0.23283900815259279
850,9.398663815101102,-1.758918794229226,-0.6839318456800503,-0.1179468206009911,0.026539238809997142,-0.2286205841574664
851,9.300197782394129,-1.780313450554042,-0.8375925563024276,-0.11853066376000015,0.02600669722609481,-0.22439457373053534
852,9.169615446208931,-2.0942939288363154,-0.4095923005130155,-0.11844726983841657,0.027401967593000724,-0.2234565647244043
853,9.322105463420186,-1.8347293465212962,-0.3620762468956647,-0.11763891078865599,0.025692437441440126,-0.22175298874622415
854,9.050078627082804,-1.8266884501950262,-0.5277943226624315,-0.11753781849561179,0.02399160447125085,-0.21933551833874418
855,9.056497830719309,-2.0698908639528844,-0.579918836422239,-0.11655269070940256,0.023787024549801496,-0.21928964014807784
856,9.169285659472669,-2.122576601209413,-0.4258586910858375,-0.11542036708104014,0.024332614259032583,-0.2230222762271372
857,9.017782961363256,-1.5985476835558288,-0.124867955087896,-0.11499564189079457,0.02424278559488604,-0.23039545222767
858,8.98747737434651,-1.736326210827098,-0.28136163974554346,-0.11079486565317215,0.02334387571977501,-0.234643370511952
859,9.15769580691946,-1.6350387194040052,-0.3992879693581924,-0.11151886031689917,0.02392920452598687,-0.23604327054144109
860,9.395240355489623,-1.5573141131850274,-0.4715820908258334,-0.11072369824850153,0.023263124403072235,-0.23689578775559744
861,9.539434455581747,-1.5288357242288582,-0.3839803234986849,-0.10850780055120472,0.021826358921616565,-0.23774367330752633
862,9.458124565836334,-1.5164771425955246,-0.08406238003227806,-0.10706491045157313,0.021190831636422876,-0.2382058562219938
863,9.323433067984123,-1.6387596094936143,-0.24706336691993702,-0.10790688448532157,0.022906620451280436,-0.23478761372796883
864,9.647984144824916,-1.7070990988848775,-0.26886161240879414,-0.10525129939149476,0.021005294677611537,-0.2342360323281325
865,9.534643553713815,-1.6207598735191653,-0.3207883603676289,-0.10388971834259292,0.0204482018093112,-0.23372675294549802
866,9.1856635727802,-1.6004546726164937,-0.4065930969387516,-0.10446625179273239,0.0210178983714204,-0.2317112648032667
867,9.10317077305314,-1.8413510150134857,-0.46959705158840537,-0.10593883126242942,0.020960715262225704,-0.22760533335356964
868,9.192644410912132,-1.468418235440515,-0.41295195022308107,-0.10512757313590242,0.020104180916517698,-0.22504327858970227
869,8.987020394430182,-1.4344109225726318,-0.649510093112265,-0.10430712250125715,0.01924522348879073,-0.2239163858934517
870,9.060996322707798,-1.4527517469918565,-0.6645177834988516,-0.10247797592789122,0.01837253970816337,-0.22607996051637524
871,9.291119079188041,-1.5365159645867579,-0.5135502182277374,-0.1007925361389729,0.018658305005670263,-0.23033732009504027
872,9.353167571133062,-1.7124340031063188,-0.41717063364592855,-0.10051947477595663,0.0207439277348866,-0.23436344460443254
873,9.221362319663395,-1.3761794078816785,-0.35479745443518,-0.09802472896979145,0.018162056790871538,-0.23606822358482846
874,9.391916541194664,-1.3321522147088394,-0.5251264625802036,-0.09761254861159736,0.017747132646823406,-0.23849275653075402
875,9.372601924135754,-1.3185636941055678,-0.4321238424074676,-0.09662049912096105,0.01723275813987825,-0.24004261047769254
876,9.328789193975805,-1.3866640626260427,-0.3145721150531249,-0.09551187040789276,0.0166579151164715,-0.24176397333639196
877,9.516463901717735,-1.6041369867242894,-0.5058279113103054,-0.09526696434404591,0.01649806246971072,-0.24486992122943502
878,9.161936637728076,-1.3907195082669108,-0.1184393980396601,-0.09277479298575303,0.01476942876423892,-0.24486352313918386
879,9.258501513893087,-1.3634654990023325,-0.36623018704019844,-0.09098268311179905,0.013764688592899327,-0.24414057210014312
880,9.305377033918944,-1.3461329804023223,-0.4538439304198303,-0.09129014805236199,0.014426557143373042,-0.24227757542490214
881,9.404068687050852,-1.3711306052688408,-0.3845819949735371,-0.09239547197463235,0.015563828179745824,-0.24029832505786636
882,9.730752057211877,-1.477826633021857,-0.40148974744333793,-0.09232644476450748,0.015410319506603385,-0.23952215062169624
883,9.50514379830942,-1.2351037013629371,-0.541735004173595,-0.09150635908788506,0.013698698135284071,-0.23952557725527265
884,9.398365917334514,-1.2004682777159892,-0.5090634995625943,-0.09070288404558868,0.012707296619979668,-0.23593913232019353
885,9.246326892746918,-1.09426825188045,-0.27861920822960046,-0.0893927838475628,0.012851330855141197,-0.2326697576963911
886,9.129166893642372,-1.094335241150031,-0.03854365719498749,-0.08715502217621145,0.013391819480858337,-0.23125427793197825
887,9.194664776566661,-1.39386799006926,-0.04892254293302627,-0.08417750825644586,0.013436697816066224,-0.23262900972693049
888,9.498682728861654,-1.125911515962249,-0.5344765665196118,-0.08496140722079173,0.014288023101862056,-0.23945938396339733
889,9.504022383150474,-1.2381246665413717,-0.738790725257647,-0.08226978894621792,0.012244836535000159,-0.2448489226171866
890,9.404004028051874,-1.1020822609359275,-0.5566923942513337,-0.08188261628887303,0.011191905276154702,-0.246951151823173
891,9.347837709200663,-0.8957145182337722,-0.3209836678073443,-0.0829868982913001,0.010912968202168465,-0.24724938967844573
892,9.445808215568317,-0.9968739180610562,-0.4206508064779949,-0.08276216198113814,0.010211294753443621,-0.2481050580256135
893,9.580980754484287,-1.2206826606102223,-0.4289238186581354,-0.08024018249794482,0.011036686869233973,-0.24894045220217312
894,9.601779968753092,-1.252369833269479,-0.5982813681579177,-0.07771755440033448,0.011861401644871745,-0.24977517248786696
895,9.784204941964521,-1.1847387662988829,-0.5817260983526936,-0.07570451666602297,0.011687639125586135,-0.2496102142835102
896,9.872623266792953,-1.0036543005972656,-0.5516359632921779,-0.0751909150871258,0.010833230572601143,-0.24759599033353225
897,9.551376388157108,-0.7218466163283896,-0.7433107697519424,-0.07682312435046064,0.010002624636264524,-0.24349433397375786
898,9.430154040090118,-0.7915478238582833,-0.4930240652689187,-0.07768395190560362,0.009163102624708788,-0.2409421039337188
899,9.2297228870934,-0.8028320845958601,-0.44620298178563,-0.0757230243771304,0.009009175090978908,-0.23908756791380958
900,9.431208920759836,-0.9485948821262806,-0.5233409748589664,-0.07371563467400058,0.008990141365873864,-0.23787237135756495
901,9.658471031050427,-1.0510122257371235,-0.4643651611346315,-0.07232093086061067,0.009264756496107064,-0.23846089817733707
902,9.401296668411453,-0.8890578353958376,-0.10461558626098877,-0.07138087032179857,0.00987245297204176,-0.24186731197004588
903,9.422943516280561,-0.8885543756288682,-0.535104885690836,-0.06970363060747646,0.008148965182758374,-0.2452806427993556
904,9.410645368754377,-0.8917573496453481,-0.5262331169152179,-0.069421594043786,0.00787069801030597,-0.2479782202893585
905,9.28345714039344,-0.8621447340194109,-0.38569771830332944,-0.06940840761310921,0.00786818737394343,-0.2500354433307457
906,9.313381517036776,-0.8031051532237055,-0.3685115987944104,-0.0679720051591282,0.007850930189283876,-0.2523148329009094
907,9.726120046567738,-0.7135790264112738,-0.5941847271552421,-0.06407343480049306,0.0077311207279064055,-0.2553229185545671
908,9.448559352779426,-0.4363356752667399,-0.20055560404725448,-0.06325044491019816,0.006872494184396373,-0.25446866781429944
909,9.631254458529456,-0.5619106900476483,-0.30676672374557246,-0.06243272099573904,0.006014078803409008,-0.2528967847050715
910,9.431589497154071,-0.7200437021193378,-0.1694580559421753,-0.061606114080075824,0.0061610371054392,-0.25118378513332185
911,9.208893023491214,-0.8581849910323444,-0.03726394734778541,-0.06078676168576147,0.006138891951181958,-0.24860081106377066
912,9.523106018036074,-0.9733080452624521,-0.34363525478780854,-0.060141830820261345,0.004586918948389272,-0.2446426498094968
913,9.308080662536234,-0.6458794352987086,-0.3646893626833271,-0.06098334446615148,0.004596466731838983,-0.2437940585592589
914,9.253470363614746,-0.6662824318678432,-0.4219695345802608,-0.061834053235237524,0.004607765224879474,-0.24151093056657774
915,9.124978799170073,-0.6806563914084403,-0.2916756849696747,-0.060708127837449666,0.005101479200563497,-0.23894094794472653
916,9.17689674547445,-0.655186589185779,-0.17944931841654505,-0.05904904429837508,0.005937056734883415,-0.2381075121582401
917,9.640586602907026,-0.6490418076758924,-0.35693372890448744,-0.05872439908393858,0.006476037651207035,-0.24097083920437487
918,9.300971611893948,-0.6342139056595477,-0.45582829833685423,-0.055366246137851405,0.0038804505021605745,-0.2469398267072993
919,9.46035674668986,-0.7948103463946823,-0.44094297045939945,-0.05338969154024375,0.004160400497344081,-0.25218616000564464
920,9.547962740844763,-0.6917506104339336,-0.6212521883802998,-0.05367203939095713,0.004006568830193041,-0.25529630536068393
921,9.418363416645045,-0.5813208296712569,-0.6276325228456052,-0.05420565457317901,0.003448815670741315,-0.256428954024055
922,9.141266802028941,-0.7797555502720719,-0.08525699564503997,-0.05260841150164559,0.0035091934768697246,-0.256342452022333
923,9.360621527102543,-0.19059791616090582,-0.3699131970099293,-0.051768687286876565,0.004352874944952433,-0.25547986158937724
924,9.575127901570507,-0.3880497799023983,-0.2654636487723711,-0.04882966487034142,0.0030278301148863856,-0.256766661440284
925,9.663002644547197,-0.45413474802661113,-0.23318161829684686,-0.04894329539187638,0.003336595307023173,-0.2554517920477183
926,9.54478344689468,-0.3803353944507416,-0.3649202959842483,-0.05032899194774952,0.004189144959075758,-0.25204094987269604
927,9.249638610646445,-0.40208089083554444,-0.6009822661329993,-0.04952172955183509,0.0033333713822837176,-0.24885551875438075
928,9.497374758481762,-0.29626134202541665,-0.668462247486986,-0.04869952981519835,0.0024747538038285624,-0.248000471214817
929,9.394430443823516,-0.3521957374884859,-0.32790210571401407,-0.047179104332288044,0.0016091882528401144,-0.2464251422852455
930,9.34209321956698,-0.3415462258877433,-0.22342953831219464,-0.046010799085499744,0.002255665366729012,-0.24370063639320838
931,9.430289338579351,-0.33573048200832756,-0.2934858028004311,-0.0446116077812968,0.002788939789498569,-0.24201552203395296
932,9.584061838713701,-0.4434715569474035,-0.2801139152932548,-0.042402539411461534,0.001366622361312369,-0.24425333549160655
933,9.243965806636869,-0.27336524367352183,-0.2820594635885782,-0.04317258741511889,0.0030688582641266774,-0.25193384099037464
934,9.420977335125826,-0.3436429949079308,-0.696144350640279,-0.04261948655961505,0.0011901136363924464,-0.2524529833554431
935,9.654338817484707,-0.33634632396143516,-0.7516293412382127,-0.04078671202526241,0.0001199745117923816,-0.25562179200901536
936,9.769051059808923,-0.2206247050747328,-0.6194778260973168,-0.03938568801150708,0.00010049198627446766,-0.260139463496909
937,9.698053508352618,-0.077498084880674,-0.6919398618108411,-0.039837801822969664,2.6859585872312397e-05,-0.2616970052221256
938,9.502269795403102,-0.10150065836177172,-0.5457750577728622,-0.036501212605114276,-0.0008583270752396245,-0.2616815210082678
939,9.80902577502923,-0.18847655727736096,-0.4243867525584391,-0.03667062865908641,0.0011563998322916818,-0.25808751550518505
940,9.696447628522678,-0.2169544322794914,-0.2929984460992129,-0.03504194189714612,0.001183485966483629,-0.2578370201097669
941,9.412484414274509,-0.21112715963977058,-0.25077465638783475,-0.03313164352667538,0.00032976788808202043,-0.25691042019491034
942,9.484904947922297,-0.24019695970468286,-0.38311899570126134,-0.03393084177390075,0.0011209920123937472,-0.2497642708980813
943,9.486829112177329,-0.3326812709745381,-0.32679744615828044,-0.03394178852091685,0.001123076223184711,-0.24805646226193578
944,9.221741436565773,-0.11512267642530108,-0.5015245378680463,-0.0325274053315779,0.0003908664642009041,-0.250645594279738
945,8.893215264288369,0.10820085256805786,-0.41350549408322684,-0.03184825273525865,0.0010416553089726748,-0.24851500990314307
946,8.831696841400557,0.18197076513678967,-0.28194574714845866,-0.030442105962722187,0.0021565406574936734,-0.24455525964222555
947,9.287791520365518,0.030234985769009844,-0.4584035785408748,-0.026855623116046636,0.0021955336160544726,-0.24529977050340326
948,9.559098680325041,-0.19298201263398948,-0.4092427585745262,-0.029301446031798795,0.0030617950122230424,-0.25384778271239167
949,9.431321144308232,-0.1422420442139926,-0.5187224846658234,-0.026899055604270455,0.0003099123655703731,-0.2573662472840029
950,9.552441823787303,0.00668594714406559,-0.7145166628345004,-0.02602167225607343,-0.0005956623722857821,-0.25841638951069246
951,9.60415995430657,0.23526706512830592,-0.7687994582474994,-0.026845519236581718,0.0008428686887560427,-0.2581243769241382
952,9.163572721663511,0.47557887984447034,-0.4979212834665658,-0.027141331237651597,0.00286672762926385,-0.25741587918101716
953,9.558507435008751,-0.10677708489927736,-0.4880506641649292,-0.0221522948762737,-0.0005907742054018694,-0.25825658730986395
954,9.615771372930274,-0.24961011843270706,-0.5148384235845435,-0.022742305427633464,0.00029851030454540223,-0.25839263080583974
955,9.597777160412814,-0.10243975788864379,-0.4729901223035892,-0.021944356475047368,0.0004864816380235114,-0.2588902800951601
956,9.579307416270915,0.17954909720364598,-0.35708221193556,-0.020010485825611324,-0.00038474952584997076,-0.2591567790450564
957,9.582301184838292,0.4149092393574436,-0.21913774987351592,-0.019563042150153365,-0.0011629910707032184,-0.2580747795710924
958,9.664559206740895,0.34633847530388795,-0.28043032488523817,-0.022929886887371045,-0.0011247909718495848,-0.25467961777084575
959,9.396238154059228,0.3596462430117652,-0.37795540074194833,-0.019952093519597768,0.0009928588395376047,-0.251953441787845
